,participant,date,trial,nbluedots,stim,stim_strength,incentive,desirability,endowment_size,resp,rt,correct,outcome,remain_endowment
0,1,2022-03-08_10h02.59.641,1,49.0,-1.0,1.0,0.05,0,0.0,1.0,1454.6,0.0,-0.0,0.0
1,1,2022-03-08_10h02.59.641,2,46.0,-4.0,4.0,0.05,0,0.0,1.0,2016.7,0.0,-0.0,0.0
2,1,2022-03-08_10h02.59.641,3,54.0,4.0,4.0,0.05,0,0.0,1.0,959.7,1.0,-0.0,0.0
3,1,2022-03-08_10h02.59.641,4,51.0,1.0,1.0,0.05,0,0.0,1.0,910.2,1.0,-0.0,0.0
4,1,2022-03-08_10h02.59.641,5,52.0,2.0,2.0,0.05,0,0.0,-1.0,1021.8,0.0,-0.0,0.0
5,1,2022-03-08_10h02.59.641,6,48.0,-2.0,2.0,0.05,0,0.0,-1.0,1722.6,1.0,-0.0,0.0
6,1,2022-03-08_10h02.59.641,7,53.0,3.0,3.0,0.05,0,0.0,1.0,2491.6,1.0,-0.0,0.0
7,1,2022-03-08_10h02.59.641,8,47.0,-3.0,3.0,0.05,0,0.0,-1.0,1940.4,1.0,-0.0,0.0
8,1,2022-03-08_10h02.59.641,9,48.0,-2.0,2.0,10.0,0,0.0,1.0,1172.4,0.0,-0.0,0.0
9,1,2022-03-08_10h02.59.641,10,46.0,-4.0,4.0,10.0,0,0.0,-1.0,1064.6,1.0,-0.0,0.0
10,1,2022-03-08_10h02.59.641,11,52.0,2.0,2.0,10.0,0,0.0,1.0,783.4,1.0,-0.0,0.0
11,1,2022-03-08_10h02.59.641,12,49.0,-1.0,1.0,10.0,0,0.0,-1.0,925.0,1.0,-0.0,0.0
12,1,2022-03-08_10h02.59.641,13,53.0,3.0,3.0,10.0,0,0.0,1.0,1889.5,1.0,-0.0,0.0
13,1,2022-03-08_10h02.59.641,14,54.0,4.0,4.0,10.0,0,0.0,1.0,1482.2,1.0,-0.0,0.0
14,1,2022-03-08_10h02.59.641,15,47.0,-3.0,3.0,10.0,0,0.0,-1.0,1583.6,1.0,-0.0,0.0
15,1,2022-03-08_10h02.59.641,16,51.0,1.0,1.0,10.0,0,0.0,1.0,1166.8,1.0,-0.0,0.0
16,1,2022-03-08_10h02.59.641,17,46.0,-4.0,4.0,10.0,0,0.0,1.0,1523.8,0.0,-0.0,0.0
17,1,2022-03-08_10h02.59.641,18,52.0,2.0,2.0,10.0,0,0.0,1.0,894.7,1.0,-0.0,0.0
18,1,2022-03-08_10h02.59.641,19,49.0,-1.0,1.0,10.0,0,0.0,1.0,1333.7,0.0,-0.0,0.0
19,1,2022-03-08_10h02.59.641,20,47.0,-3.0,3.0,10.0,0,0.0,1.0,1316.9,0.0,-0.0,0.0
20,1,2022-03-08_10h02.59.641,21,53.0,3.0,3.0,10.0,0,0.0,1.0,700.0999999999999,1.0,-0.0,0.0
21,1,2022-03-08_10h02.59.641,22,51.0,1.0,1.0,10.0,0,0.0,1.0,746.6,1.0,-0.0,0.0
22,1,2022-03-08_10h02.59.641,23,54.0,4.0,4.0,10.0,0,0.0,1.0,2000.0,1.0,-0.0,0.0
23,1,2022-03-08_10h02.59.641,24,48.0,-2.0,2.0,10.0,0,0.0,-1.0,1395.9,1.0,-0.0,0.0
24,1,2022-03-08_10h02.59.641,25,52.0,2.0,2.0,0.05,0,0.0,1.0,1150.4,1.0,-0.0,0.0
25,1,2022-03-08_10h02.59.641,26,48.0,-2.0,2.0,0.05,0,0.0,1.0,749.9,0.0,-0.0,0.0
26,1,2022-03-08_10h02.59.641,27,46.0,-4.0,4.0,0.05,0,0.0,-1.0,1233.7,1.0,-0.0,0.0
27,1,2022-03-08_10h02.59.641,28,49.0,-1.0,1.0,0.05,0,0.0,1.0,1450.4,0.0,-0.0,0.0
28,1,2022-03-08_10h02.59.641,29,47.0,-3.0,3.0,0.05,0,0.0,1.0,950.0999999999999,0.0,-0.0,0.0
29,1,2022-03-08_10h02.59.641,30,53.0,3.0,3.0,0.05,0,0.0,1.0,750.5,1.0,-0.0,0.0
30,1,2022-03-08_10h02.59.641,31,54.0,4.0,4.0,0.05,0,0.0,1.0,716.3000000000001,1.0,-0.0,0.0
31,1,2022-03-08_10h02.59.641,32,51.0,1.0,1.0,0.05,0,0.0,1.0,1000.3,1.0,-0.0,0.0
32,1,2022-03-08_10h02.59.641,33,48.0,-2.0,2.0,0.05,1,5.0,-1.0,1217.1,1.0,-0.0,5.0
33,1,2022-03-08_10h02.59.641,34,53.0,3.0,3.0,0.05,-1,5.0,1.0,2946.9,1.0,-1.0,4.0
34,1,2022-03-08_10h02.59.641,35,49.0,-1.0,1.0,0.05,1,5.0,1.0,1249.3,0.0,-0.0,4.0
35,1,2022-03-08_10h02.59.641,36,51.0,1.0,1.0,0.05,-1,5.0,1.0,1467.2,1.0,-0.0,4.0
36,1,2022-03-08_10h02.59.641,37,52.0,2.0,2.0,0.05,-1,5.0,1.0,1353.3,1.0,-0.0,4.0
37,1,2022-03-08_10h02.59.641,38,54.0,4.0,4.0,0.05,-1,5.0,1.0,943.9,1.0,-1.0,3.0
38,1,2022-03-08_10h02.59.641,39,47.0,-3.0,3.0,0.05,1,5.0,1.0,1474.1,0.0,-0.0,3.0
39,1,2022-03-08_10h02.59.641,40,46.0,-4.0,4.0,0.05,1,5.0,-1.0,5132.7,1.0,-0.0,3.0
40,1,2022-03-08_10h02.59.641,41,52.0,2.0,2.0,0.05,1,5.0,1.0,1210.4,1.0,-0.0,3.0
41,1,2022-03-08_10h02.59.641,42,51.0,1.0,1.0,0.05,1,5.0,1.0,1101.3,1.0,-0.0,3.0
42,1,2022-03-08_10h02.59.641,43,48.0,-2.0,2.0,0.05,-1,5.0,1.0,997.1,0.0,-0.0,3.0
43,1,2022-03-08_10h02.59.641,44,53.0,3.0,3.0,0.05,1,5.0,1.0,1661.5,1.0,-0.0,3.0
44,1,2022-03-08_10h02.59.641,45,47.0,-3.0,3.0,0.05,-1,5.0,1.0,1083.5,0.0,-1.0,2.0
45,1,2022-03-08_10h02.59.641,46,54.0,4.0,4.0,0.05,1,5.0,1.0,984.1,1.0,-0.0,2.0
46,1,2022-03-08_10h02.59.641,47,46.0,-4.0,4.0,0.05,-1,5.0,-1.0,4964.5,1.0,-0.0,2.0
47,1,2022-03-08_10h02.59.641,48,49.0,-1.0,1.0,0.05,-1,5.0,1.0,1514.0,0.0,-0.0,2.0
48,1,2022-03-08_10h02.59.641,49,52.0,2.0,2.0,10.0,1,5.0,1.0,1334.1,1.0,-0.0,2.0
49,1,2022-03-08_10h02.59.641,50,51.0,1.0,1.0,10.0,1,5.0,1.0,1299.9,1.0,-0.0,2.0
50,1,2022-03-08_10h02.59.641,51,47.0,-3.0,3.0,10.0,-1,5.0,1.0,866.4,0.0,-0.0,2.0
51,1,2022-03-08_10h02.59.641,52,54.0,4.0,4.0,10.0,1,5.0,1.0,1032.9,1.0,-0.0,2.0
52,1,2022-03-08_10h02.59.641,53,49.0,-1.0,1.0,10.0,-1,5.0,1.0,1528.7,0.0,-1.0,1.0
53,1,2022-03-08_10h02.59.641,54,53.0,3.0,3.0,10.0,1,5.0,1.0,1916.8,1.0,-0.0,1.0
54,1,2022-03-08_10h02.59.641,55,46.0,-4.0,4.0,10.0,-1,5.0,1.0,1000.7,0.0,-0.0,1.0
55,1,2022-03-08_10h02.59.641,56,48.0,-2.0,2.0,10.0,-1,5.0,1.0,1115.2,0.0,-0.0,1.0
56,1,2022-03-08_10h02.59.641,57,54.0,4.0,4.0,10.0,-1,5.0,1.0,1048.9,1.0,-0.0,1.0
57,1,2022-03-08_10h02.59.641,58,51.0,1.0,1.0,10.0,-1,5.0,1.0,2033.4,1.0,-0.0,1.0
58,1,2022-03-08_10h02.59.641,59,49.0,-1.0,1.0,10.0,1,5.0,-1.0,1734.1,1.0,-0.0,1.0
59,1,2022-03-08_10h02.59.641,60,53.0,3.0,3.0,10.0,-1,5.0,1.0,948.5,1.0,-0.0,1.0
60,1,2022-03-08_10h02.59.641,61,52.0,2.0,2.0,10.0,-1,5.0,1.0,2483.2,1.0,-1.0,0.0
61,1,2022-03-08_10h02.59.641,62,52.0,2.0,2.0,0.05,-1,5.0,-1.0,1381.7,0.0,-0.0,5.0
62,1,2022-03-08_10h02.59.641,63,54.0,4.0,4.0,0.05,-1,5.0,1.0,1066.5,1.0,-0.0,5.0
63,1,2022-03-08_10h02.59.641,64,46.0,-4.0,4.0,0.05,1,5.0,-1.0,1350.1,1.0,-0.0,5.0
64,1,2022-03-08_10h02.59.641,65,48.0,-2.0,2.0,0.05,1,5.0,1.0,1065.8,0.0,-0.0,5.0
65,1,2022-03-08_10h02.59.641,66,49.0,-1.0,1.0,0.05,1,5.0,1.0,748.9,0.0,-0.0,5.0
66,1,2022-03-08_10h02.59.641,67,53.0,3.0,3.0,0.05,-1,5.0,1.0,914.2,1.0,-1.0,4.0
67,1,2022-03-08_10h02.59.641,68,47.0,-3.0,3.0,0.05,1,5.0,-1.0,1297.7,1.0,-0.0,4.0
68,1,2022-03-08_10h02.59.641,69,51.0,1.0,1.0,0.05,-1,5.0,1.0,2100.0,1.0,-0.0,4.0
69,1,2022-03-08_10h02.59.641,70,54.0,4.0,4.0,10.0,1,5.0,1.0,1750.3,1.0,-0.0,4.0
70,1,2022-03-08_10h02.59.641,71,53.0,3.0,3.0,10.0,1,5.0,1.0,1166.9,1.0,-0.0,4.0
71,1,2022-03-08_10h02.59.641,72,49.0,-1.0,1.0,10.0,-1,5.0,1.0,3183.1,0.0,-0.0,4.0
72,1,2022-03-08_10h02.59.641,73,46.0,-4.0,4.0,10.0,-1,5.0,1.0,3099.6,0.0,-1.0,3.0
73,1,2022-03-08_10h02.59.641,74,51.0,1.0,1.0,10.0,1,5.0,1.0,933.1,1.0,-0.0,3.0
74,1,2022-03-08_10h02.59.641,75,47.0,-3.0,3.0,10.0,-1,5.0,-1.0,2298.5,1.0,-0.0,3.0
75,1,2022-03-08_10h02.59.641,76,48.0,-2.0,2.0,10.0,-1,5.0,1.0,3755.4,0.0,-0.0,3.0
76,1,2022-03-08_10h02.59.641,77,52.0,2.0,2.0,10.0,1,5.0,1.0,1205.4,1.0,-0.0,3.0
77,1,2022-03-08_10h02.59.641,78,49.0,-1.0,1.0,0.05,-1,5.0,-1.0,2228.2,1.0,-0.0,3.0
78,1,2022-03-08_10h02.59.641,79,54.0,4.0,4.0,0.05,1,5.0,1.0,857.1999999999999,1.0,-0.0,3.0
79,1,2022-03-08_10h02.59.641,80,46.0,-4.0,4.0,0.05,-1,5.0,1.0,1877.3,0.0,-1.0,2.0
80,1,2022-03-08_10h02.59.641,81,47.0,-3.0,3.0,0.05,-1,5.0,1.0,909.2,0.0,-0.0,2.0
81,1,2022-03-08_10h02.59.641,82,48.0,-2.0,2.0,0.05,-1,5.0,-1.0,4076.3,1.0,-1.0,1.0
82,1,2022-03-08_10h02.59.641,83,53.0,3.0,3.0,0.05,1,5.0,1.0,811.9,1.0,-0.0,1.0
83,1,2022-03-08_10h02.59.641,84,52.0,2.0,2.0,0.05,1,5.0,1.0,1025.8,1.0,-0.0,1.0
84,1,2022-03-08_10h02.59.641,85,51.0,1.0,1.0,0.05,1,5.0,1.0,1057.2,1.0,-0.0,1.0
85,1,2022-03-08_10h02.59.641,86,54.0,4.0,4.0,10.0,-1,5.0,1.0,860.1999999999999,1.0,-0.0,1.0
86,1,2022-03-08_10h02.59.641,87,46.0,-4.0,4.0,10.0,1,5.0,-1.0,894.1,1.0,-0.0,1.0
87,1,2022-03-08_10h02.59.641,88,53.0,3.0,3.0,10.0,-1,5.0,1.0,1372.8,1.0,-0.0,1.0
88,1,2022-03-08_10h02.59.641,89,48.0,-2.0,2.0,10.0,1,5.0,-1.0,1922.8,1.0,-0.0,1.0
89,1,2022-03-08_10h02.59.641,90,52.0,2.0,2.0,10.0,-1,5.0,1.0,943.1,1.0,-0.0,1.0
90,1,2022-03-08_10h02.59.641,91,49.0,-1.0,1.0,10.0,1,5.0,-1.0,2226.9,1.0,-0.0,1.0
91,1,2022-03-08_10h02.59.641,92,51.0,1.0,1.0,10.0,-1,5.0,1.0,1191.5,1.0,-0.0,1.0
92,1,2022-03-08_10h02.59.641,93,47.0,-3.0,3.0,10.0,1,5.0,-1.0,1238.2,1.0,-0.0,1.0
93,2,2022-03-08_13h57.09.255,1,47.0,-3.0,3.0,10.0,0,0.0,1.0,1187.2,0.0,-0.0,0.0
94,2,2022-03-08_13h57.09.255,2,54.0,4.0,4.0,10.0,0,0.0,1.0,1033.3,1.0,-0.0,0.0
95,2,2022-03-08_13h57.09.255,3,46.0,-4.0,4.0,10.0,0,0.0,1.0,1818.6,0.0,-0.0,0.0
96,2,2022-03-08_13h57.09.255,4,48.0,-2.0,2.0,10.0,0,0.0,1.0,946.3000000000001,0.0,-0.0,0.0
97,2,2022-03-08_13h57.09.255,5,51.0,1.0,1.0,10.0,0,0.0,1.0,1409.0,1.0,-0.0,0.0
98,2,2022-03-08_13h57.09.255,6,52.0,2.0,2.0,10.0,0,0.0,1.0,961.3000000000001,1.0,-0.0,0.0
99,2,2022-03-08_13h57.09.255,7,49.0,-1.0,1.0,10.0,0,0.0,1.0,1511.1,0.0,-0.0,0.0
100,2,2022-03-08_13h57.09.255,8,53.0,3.0,3.0,10.0,0,0.0,1.0,2042.1,1.0,-0.0,0.0
101,2,2022-03-08_13h57.09.255,9,48.0,-2.0,2.0,0.05,0,0.0,1.0,972.9,0.0,-0.0,0.0
102,2,2022-03-08_13h57.09.255,10,52.0,2.0,2.0,0.05,0,0.0,1.0,741.4,1.0,-0.0,0.0
103,2,2022-03-08_13h57.09.255,11,51.0,1.0,1.0,0.05,0,0.0,1.0,1160.5,1.0,-0.0,0.0
104,2,2022-03-08_13h57.09.255,12,54.0,4.0,4.0,0.05,0,0.0,1.0,910.2,1.0,-0.0,0.0
105,2,2022-03-08_13h57.09.255,13,49.0,-1.0,1.0,0.05,0,0.0,1.0,951.7,0.0,-0.0,0.0
106,2,2022-03-08_13h57.09.255,14,53.0,3.0,3.0,0.05,0,0.0,1.0,864.4,1.0,-0.0,0.0
107,2,2022-03-08_13h57.09.255,15,47.0,-3.0,3.0,0.05,0,0.0,1.0,1678.2,0.0,-0.0,0.0
108,2,2022-03-08_13h57.09.255,16,46.0,-4.0,4.0,0.05,0,0.0,1.0,897.2,0.0,-0.0,0.0
109,2,2022-03-08_13h57.09.255,17,47.0,-3.0,3.0,10.0,0,0.0,1.0,1008.3,0.0,-0.0,0.0
110,2,2022-03-08_13h57.09.255,18,46.0,-4.0,4.0,10.0,0,0.0,1.0,1227.9,0.0,-0.0,0.0
111,2,2022-03-08_13h57.09.255,19,48.0,-2.0,2.0,10.0,0,0.0,1.0,825.5,0.0,-0.0,0.0
112,2,2022-03-08_13h57.09.255,20,51.0,1.0,1.0,10.0,0,0.0,1.0,1524.6,1.0,-0.0,0.0
113,2,2022-03-08_13h57.09.255,21,49.0,-1.0,1.0,10.0,0,0.0,1.0,989.1999999999999,0.0,-0.0,0.0
114,2,2022-03-08_13h57.09.255,22,52.0,2.0,2.0,10.0,0,0.0,1.0,1182.1,1.0,-0.0,0.0
115,2,2022-03-08_13h57.09.255,23,53.0,3.0,3.0,10.0,0,0.0,1.0,1427.8,1.0,-0.0,0.0
116,2,2022-03-08_13h57.09.255,24,54.0,4.0,4.0,10.0,0,0.0,1.0,981.6,1.0,-0.0,0.0
117,2,2022-03-08_13h57.09.255,25,51.0,1.0,1.0,0.05,0,0.0,1.0,828.3000000000001,1.0,-0.0,0.0
118,2,2022-03-08_13h57.09.255,26,53.0,3.0,3.0,0.05,0,0.0,1.0,760.5,1.0,-0.0,0.0
119,2,2022-03-08_13h57.09.255,27,52.0,2.0,2.0,0.05,0,0.0,1.0,1383.7,1.0,-0.0,0.0
120,2,2022-03-08_13h57.09.255,28,49.0,-1.0,1.0,0.05,0,0.0,1.0,974.9,0.0,-0.0,0.0
121,2,2022-03-08_13h57.09.255,29,46.0,-4.0,4.0,0.05,0,0.0,1.0,1372.5,0.0,-0.0,0.0
122,2,2022-03-08_13h57.09.255,30,54.0,4.0,4.0,0.05,0,0.0,1.0,1019.4,1.0,-0.0,0.0
123,2,2022-03-08_13h57.09.255,31,48.0,-2.0,2.0,0.05,0,0.0,-1.0,1412.0,1.0,-0.0,0.0
124,2,2022-03-08_13h57.09.255,32,47.0,-3.0,3.0,0.05,0,0.0,1.0,1802.0,0.0,-0.0,0.0
125,2,2022-03-08_13h57.09.255,33,52.0,2.0,2.0,0.05,-1,5.0,1.0,1636.4,1.0,-0.0,5.0
126,2,2022-03-08_13h57.09.255,34,51.0,1.0,1.0,0.05,-1,5.0,-1.0,2358.1,0.0,-1.0,4.0
127,2,2022-03-08_13h57.09.255,35,46.0,-4.0,4.0,0.05,1,5.0,1.0,1537.1,0.0,-0.0,4.0
128,2,2022-03-08_13h57.09.255,36,54.0,4.0,4.0,0.05,-1,5.0,1.0,1527.0,1.0,-0.0,4.0
129,2,2022-03-08_13h57.09.255,37,48.0,-2.0,2.0,0.05,1,5.0,-1.0,1903.5,1.0,-0.0,4.0
130,2,2022-03-08_13h57.09.255,38,49.0,-1.0,1.0,0.05,1,5.0,1.0,1571.4,0.0,-0.0,4.0
131,2,2022-03-08_13h57.09.255,39,47.0,-3.0,3.0,0.05,1,5.0,1.0,1786.4,0.0,-0.0,4.0
132,2,2022-03-08_13h57.09.255,40,53.0,3.0,3.0,0.05,-1,5.0,1.0,1403.8,1.0,-0.0,4.0
133,2,2022-03-08_13h57.09.255,41,52.0,2.0,2.0,10.0,-1,5.0,1.0,2161.5,1.0,-0.0,4.0
134,2,2022-03-08_13h57.09.255,42,48.0,-2.0,2.0,10.0,1,5.0,-1.0,2063.8,1.0,-0.0,4.0
135,2,2022-03-08_13h57.09.255,43,53.0,3.0,3.0,10.0,-1,5.0,1.0,2171.4,1.0,-1.0,3.0
136,2,2022-03-08_13h57.09.255,44,54.0,4.0,4.0,10.0,-1,5.0,1.0,1437.1,1.0,-0.0,3.0
137,2,2022-03-08_13h57.09.255,45,47.0,-3.0,3.0,10.0,1,5.0,-1.0,4413.0,1.0,-0.0,3.0
138,2,2022-03-08_13h57.09.255,46,49.0,-1.0,1.0,10.0,1,5.0,1.0,3666.9,0.0,-0.0,3.0
139,2,2022-03-08_13h57.09.255,47,46.0,-4.0,4.0,10.0,1,5.0,-1.0,1746.5,1.0,-0.0,3.0
140,2,2022-03-08_13h57.09.255,48,51.0,1.0,1.0,10.0,-1,5.0,1.0,1848.0,1.0,-0.0,3.0
141,2,2022-03-08_13h57.09.255,49,51.0,1.0,1.0,0.05,1,5.0,1.0,1719.9,1.0,-0.0,3.0
142,2,2022-03-08_13h57.09.255,50,52.0,2.0,2.0,0.05,1,5.0,1.0,1046.1,1.0,-0.0,3.0
143,2,2022-03-08_13h57.09.255,51,47.0,-3.0,3.0,0.05,-1,5.0,1.0,2756.5,0.0,-0.0,3.0
144,2,2022-03-08_13h57.09.255,52,53.0,3.0,3.0,0.05,1,5.0,-1.0,2849.2,0.0,-0.0,3.0
145,2,2022-03-08_13h57.09.255,53,54.0,4.0,4.0,0.05,1,5.0,1.0,2219.1,1.0,-0.0,3.0
146,2,2022-03-08_13h57.09.255,54,48.0,-2.0,2.0,0.05,-1,5.0,1.0,2376.8,0.0,-1.0,2.0
147,2,2022-03-08_13h57.09.255,55,49.0,-1.0,1.0,0.05,-1,5.0,1.0,1620.4,0.0,-1.0,1.0
148,2,2022-03-08_13h57.09.255,56,46.0,-4.0,4.0,0.05,-1,5.0,-1.0,2806.0,1.0,-1.0,0.0
149,2,2022-03-08_13h57.09.255,57,46.0,-4.0,4.0,10.0,-1,5.0,-1.0,3624.1,1.0,-0.0,5.0
150,2,2022-03-08_13h57.09.255,58,51.0,1.0,1.0,10.0,1,5.0,1.0,2447.1,1.0,-0.0,5.0
151,2,2022-03-08_13h57.09.255,59,49.0,-1.0,1.0,10.0,-1,5.0,1.0,2007.8,0.0,-1.0,4.0
152,2,2022-03-08_13h57.09.255,60,54.0,4.0,4.0,10.0,1,5.0,1.0,1342.0,1.0,-0.0,4.0
153,2,2022-03-08_13h57.09.255,61,52.0,2.0,2.0,10.0,1,5.0,1.0,1681.0,1.0,-0.0,4.0
154,2,2022-03-08_13h57.09.255,62,53.0,3.0,3.0,10.0,1,5.0,1.0,1602.0,1.0,-0.0,4.0
155,2,2022-03-08_13h57.09.255,63,47.0,-3.0,3.0,10.0,-1,5.0,-1.0,2804.6,1.0,-1.0,3.0
156,2,2022-03-08_13h57.09.255,64,48.0,-2.0,2.0,10.0,-1,5.0,1.0,1958.0,0.0,-1.0,2.0
157,2,2022-03-08_13h57.09.255,65,52.0,2.0,2.0,10.0,-1,5.0,-1.0,1683.3,0.0,-0.0,2.0
158,2,2022-03-08_13h57.09.255,66,54.0,4.0,4.0,10.0,-1,5.0,1.0,1757.2,1.0,-0.0,2.0
159,2,2022-03-08_13h57.09.255,67,51.0,1.0,1.0,10.0,-1,5.0,1.0,1053.3,1.0,-0.0,2.0
160,2,2022-03-08_13h57.09.255,68,47.0,-3.0,3.0,10.0,1,5.0,-1.0,2510.0,1.0,-0.0,2.0
161,2,2022-03-08_13h57.09.255,69,53.0,3.0,3.0,10.0,-1,5.0,1.0,1035.6,1.0,-0.0,2.0
162,2,2022-03-08_13h57.09.255,70,48.0,-2.0,2.0,10.0,1,5.0,-1.0,2241.0,1.0,-0.0,2.0
163,2,2022-03-08_13h57.09.255,71,46.0,-4.0,4.0,10.0,1,5.0,1.0,2170.4,0.0,-0.0,2.0
164,2,2022-03-08_13h57.09.255,72,49.0,-1.0,1.0,10.0,1,5.0,-1.0,4766.4,1.0,-0.0,2.0
165,2,2022-03-08_13h57.09.255,73,53.0,3.0,3.0,0.05,1,5.0,1.0,1202.7,1.0,-0.0,2.0
166,2,2022-03-08_13h57.09.255,74,51.0,1.0,1.0,0.05,1,5.0,1.0,978.8,1.0,-0.0,2.0
167,2,2022-03-08_13h57.09.255,75,54.0,4.0,4.0,0.05,1,5.0,1.0,931.9,1.0,-0.0,2.0
168,2,2022-03-08_13h57.09.255,76,46.0,-4.0,4.0,0.05,-1,5.0,-1.0,2008.1,1.0,-0.0,2.0
169,2,2022-03-08_13h57.09.255,77,49.0,-1.0,1.0,0.05,-1,5.0,1.0,3337.2,0.0,-0.0,2.0
170,2,2022-03-08_13h57.09.255,78,47.0,-3.0,3.0,0.05,-1,5.0,-1.0,3252.2,1.0,-0.0,2.0
171,2,2022-03-08_13h57.09.255,79,48.0,-2.0,2.0,0.05,-1,5.0,1.0,1415.0,0.0,-0.0,2.0
172,2,2022-03-08_13h57.09.255,80,52.0,2.0,2.0,0.05,1,5.0,-1.0,4228.7,0.0,-0.0,2.0
173,2,2022-03-08_13h57.09.255,81,54.0,4.0,4.0,0.05,-1,5.0,1.0,1181.8,1.0,-1.0,1.0
174,2,2022-03-08_13h57.09.255,82,47.0,-3.0,3.0,0.05,1,5.0,1.0,2192.2,0.0,-0.0,1.0
175,2,2022-03-08_13h57.09.255,83,52.0,2.0,2.0,0.05,-1,5.0,-1.0,2147.4,0.0,-0.0,1.0
176,2,2022-03-08_13h57.09.255,84,46.0,-4.0,4.0,0.05,1,5.0,1.0,1523.9,0.0,-0.0,1.0
177,2,2022-03-08_13h57.09.255,85,49.0,-1.0,1.0,0.05,1,5.0,1.0,2927.3,0.0,-0.0,1.0
178,2,2022-03-08_13h57.09.255,86,48.0,-2.0,2.0,0.05,1,5.0,1.0,3473.2,0.0,-0.0,1.0
179,2,2022-03-08_13h57.09.255,87,51.0,1.0,1.0,0.05,-1,5.0,1.0,3823.8,1.0,-0.0,1.0
180,2,2022-03-08_13h57.09.255,88,53.0,3.0,3.0,0.05,-1,5.0,1.0,1344.8,1.0,-1.0,0.0
181,3,2022-03-07_15h28.29.001,1,54.0,4.0,4.0,10.0,-1,5.0,1.0,3702.0,1.0,-0.0,5.0
182,3,2022-03-07_15h28.29.001,2,48.0,-2.0,2.0,10.0,1,5.0,1.0,2601.0,0.0,-0.0,5.0
183,3,2022-03-07_15h28.29.001,3,52.0,2.0,2.0,10.0,-1,5.0,-1.0,2525.0,0.0,-1.0,4.0
184,3,2022-03-07_15h28.29.001,4,53.0,3.0,3.0,10.0,-1,5.0,1.0,1794.0,1.0,-1.0,3.0
185,3,2022-03-07_15h28.29.001,5,47.0,-3.0,3.0,10.0,1,5.0,-1.0,1783.0,1.0,-0.0,3.0
186,3,2022-03-07_15h28.29.001,6,51.0,1.0,1.0,10.0,-1,5.0,1.0,2320.0,1.0,-0.0,3.0
187,3,2022-03-07_15h28.29.001,7,46.0,-4.0,4.0,10.0,1,5.0,-1.0,2130.0,1.0,-0.0,3.0
188,3,2022-03-07_15h28.29.001,8,49.0,-1.0,1.0,10.0,1,5.0,-1.0,1901.0,1.0,-0.0,3.0
189,3,2022-03-07_15h28.29.001,9,52.0,2.0,2.0,0.05,1,5.0,-1.0,2238.0,0.0,-0.0,3.0
190,3,2022-03-07_15h28.29.001,10,51.0,1.0,1.0,0.05,1,5.0,-1.0,1848.0,0.0,-0.0,3.0
191,3,2022-03-07_15h28.29.001,11,54.0,4.0,4.0,0.05,1,5.0,-1.0,1880.0,0.0,-0.0,3.0
192,3,2022-03-07_15h28.29.001,12,53.0,3.0,3.0,0.05,1,5.0,1.0,3364.0,1.0,-0.0,3.0
193,3,2022-03-07_15h28.29.001,13,48.0,-2.0,2.0,0.05,-1,5.0,-1.0,3243.0,1.0,-0.0,3.0
194,3,2022-03-07_15h28.29.001,14,46.0,-4.0,4.0,0.05,-1,5.0,-1.0,2112.0,1.0,-1.0,2.0
195,3,2022-03-07_15h28.29.001,15,49.0,-1.0,1.0,0.05,-1,5.0,1.0,2996.0,0.0,-1.0,1.0
196,3,2022-03-07_15h28.29.001,16,47.0,-3.0,3.0,0.05,-1,5.0,-1.0,1813.0,1.0,-0.0,1.0
197,3,2022-03-07_15h28.29.001,17,51.0,1.0,1.0,10.0,1,5.0,1.0,3808.0,1.0,-0.0,1.0
198,3,2022-03-07_15h28.29.001,18,52.0,2.0,2.0,10.0,1,5.0,-1.0,3217.0,0.0,-0.0,1.0
199,3,2022-03-07_15h28.29.001,19,49.0,-1.0,1.0,10.0,-1,5.0,1.0,2802.0,0.0,-0.0,1.0
200,3,2022-03-07_15h28.29.001,20,54.0,4.0,4.0,10.0,1,5.0,1.0,2405.0,1.0,-0.0,1.0
201,3,2022-03-07_15h28.29.001,21,53.0,3.0,3.0,10.0,1,5.0,1.0,2234.0,1.0,-0.0,1.0
202,3,2022-03-07_15h28.29.001,22,47.0,-3.0,3.0,10.0,-1,5.0,-1.0,1887.0,1.0,-0.0,1.0
203,3,2022-03-07_15h28.29.001,23,48.0,-2.0,2.0,10.0,-1,5.0,1.0,2064.0,0.0,-1.0,0.0
204,3,2022-03-07_15h28.29.001,24,51.0,1.0,1.0,0.05,-1,5.0,1.0,3168.0,1.0,-1.0,4.0
205,3,2022-03-07_15h28.29.001,25,47.0,-3.0,3.0,0.05,1,5.0,-1.0,1550.0,1.0,-0.0,4.0
206,3,2022-03-07_15h28.29.001,26,49.0,-1.0,1.0,0.05,1,5.0,1.0,2861.0,0.0,-0.0,4.0
207,3,2022-03-07_15h28.29.001,27,53.0,3.0,3.0,0.05,-1,5.0,1.0,4138.999999999999,1.0,-0.0,4.0
208,3,2022-03-07_15h28.29.001,28,46.0,-4.0,4.0,0.05,1,5.0,-1.0,2140.0,1.0,-0.0,4.0
209,3,2022-03-07_15h28.29.001,29,48.0,-2.0,2.0,0.05,1,5.0,-1.0,1444.0,1.0,-0.0,4.0
210,3,2022-03-07_15h28.29.001,30,52.0,2.0,2.0,0.05,-1,5.0,1.0,5018.0,1.0,-0.0,4.0
211,3,2022-03-07_15h28.29.001,31,54.0,4.0,4.0,0.05,-1,5.0,1.0,4773.0,1.0,-0.0,4.0
212,3,2022-03-07_15h28.29.001,32,54.0,4.0,4.0,0.05,1,5.0,1.0,1770.0,1.0,-0.0,4.0
213,3,2022-03-07_15h28.29.001,33,48.0,-2.0,2.0,0.05,-1,5.0,1.0,2258.0,0.0,-0.0,4.0
214,3,2022-03-07_15h28.29.001,34,49.0,-1.0,1.0,0.05,-1,5.0,-1.0,2894.0,1.0,-0.0,4.0
215,3,2022-03-07_15h28.29.001,35,52.0,2.0,2.0,0.05,1,5.0,1.0,2903.0,1.0,-0.0,4.0
216,3,2022-03-07_15h28.29.001,36,51.0,1.0,1.0,0.05,1,5.0,1.0,3846.0,1.0,-0.0,4.0
217,3,2022-03-07_15h28.29.001,37,47.0,-3.0,3.0,0.05,-1,5.0,-1.0,3210.0,1.0,-1.0,3.0
218,3,2022-03-07_15h28.29.001,38,46.0,-4.0,4.0,0.05,-1,5.0,-1.0,2753.0,1.0,-0.0,3.0
219,3,2022-03-07_15h28.29.001,39,53.0,3.0,3.0,0.05,1,5.0,1.0,1755.0,1.0,-0.0,3.0
220,3,2022-03-07_15h28.29.001,40,48.0,-2.0,2.0,10.0,-1,5.0,-1.0,1624.0,1.0,-0.0,3.0
221,3,2022-03-07_15h28.29.001,41,49.0,-1.0,1.0,10.0,-1,5.0,-1.0,1880.0,1.0,-0.0,3.0
222,3,2022-03-07_15h28.29.001,42,52.0,2.0,2.0,10.0,1,5.0,1.0,2500.0,1.0,-0.0,3.0
223,3,2022-03-07_15h28.29.001,43,54.0,4.0,4.0,10.0,1,5.0,1.0,2136.0,1.0,-0.0,3.0
224,3,2022-03-07_15h28.29.001,44,47.0,-3.0,3.0,10.0,-1,5.0,-1.0,1699.0,1.0,-0.0,3.0
225,3,2022-03-07_15h28.29.001,45,46.0,-4.0,4.0,10.0,-1,5.0,-1.0,2160.0,1.0,-0.0,3.0
226,3,2022-03-07_15h28.29.001,46,51.0,1.0,1.0,10.0,1,5.0,1.0,3032.0,1.0,-0.0,3.0
227,3,2022-03-07_15h28.29.001,47,53.0,3.0,3.0,10.0,1,5.0,1.0,2273.0,1.0,-0.0,3.0
228,3,2022-03-07_15h28.29.001,48,48.0,-2.0,2.0,10.0,1,5.0,-1.0,1798.0,1.0,-0.0,3.0
229,3,2022-03-07_15h28.29.001,49,51.0,1.0,1.0,10.0,-1,5.0,-1.0,2470.0,0.0,-0.0,3.0
230,3,2022-03-07_15h28.29.001,50,46.0,-4.0,4.0,10.0,1,5.0,-1.0,1881.0,1.0,-0.0,3.0
231,3,2022-03-07_15h28.29.001,51,52.0,2.0,2.0,10.0,-1,5.0,1.0,3364.0,1.0,-0.0,3.0
232,3,2022-03-07_15h28.29.001,52,54.0,4.0,4.0,10.0,-1,5.0,1.0,2704.0,1.0,-0.0,3.0
233,3,2022-03-07_15h28.29.001,53,53.0,3.0,3.0,10.0,-1,5.0,1.0,3955.0,1.0,-1.0,2.0
234,3,2022-03-07_15h28.29.001,54,49.0,-1.0,1.0,10.0,1,5.0,-1.0,3436.0,1.0,-0.0,2.0
235,3,2022-03-07_15h28.29.001,55,47.0,-3.0,3.0,10.0,1,5.0,-1.0,2148.0,1.0,-0.0,2.0
236,3,2022-03-07_15h28.29.001,56,46.0,-4.0,4.0,10.0,0,0.0,-1.0,1639.0,1.0,-0.0,0.0
237,3,2022-03-07_15h28.29.001,57,52.0,2.0,2.0,10.0,0,0.0,1.0,2024.0,1.0,-0.0,0.0
238,3,2022-03-07_15h28.29.001,58,48.0,-2.0,2.0,10.0,0,0.0,-1.0,1909.0,1.0,-0.0,0.0
239,3,2022-03-07_15h28.29.001,59,54.0,4.0,4.0,10.0,0,0.0,1.0,1680.0,1.0,-0.0,0.0
240,3,2022-03-07_15h28.29.001,60,47.0,-3.0,3.0,10.0,0,0.0,-1.0,1760.0,1.0,-0.0,0.0
241,3,2022-03-07_15h28.29.001,61,51.0,1.0,1.0,10.0,0,0.0,-1.0,4768.0,0.0,-0.0,0.0
242,3,2022-03-07_15h28.29.001,62,53.0,3.0,3.0,10.0,0,0.0,1.0,2352.0,1.0,-0.0,0.0
243,3,2022-03-07_15h28.29.001,63,49.0,-1.0,1.0,10.0,0,0.0,1.0,2311.0,0.0,-0.0,0.0
244,3,2022-03-07_15h28.29.001,64,54.0,4.0,4.0,0.05,0,0.0,1.0,4758.999999999999,1.0,-0.0,0.0
245,3,2022-03-07_15h28.29.001,65,52.0,2.0,2.0,0.05,0,0.0,1.0,2605.0,1.0,-0.0,0.0
246,3,2022-03-07_15h28.29.001,66,48.0,-2.0,2.0,0.05,0,0.0,-1.0,2022.0,1.0,-0.0,0.0
247,3,2022-03-07_15h28.29.001,67,51.0,1.0,1.0,0.05,0,0.0,1.0,1823.0,1.0,-0.0,0.0
248,3,2022-03-07_15h28.29.001,68,46.0,-4.0,4.0,0.05,0,0.0,-1.0,3006.0,1.0,-0.0,0.0
249,3,2022-03-07_15h28.29.001,69,49.0,-1.0,1.0,0.05,0,0.0,-1.0,1940.0,1.0,-0.0,0.0
250,3,2022-03-07_15h28.29.001,70,47.0,-3.0,3.0,0.05,0,0.0,-1.0,1353.0,1.0,-0.0,0.0
251,3,2022-03-07_15h28.29.001,71,53.0,3.0,3.0,0.05,0,0.0,-1.0,1067.0,0.0,-0.0,0.0
252,3,2022-03-07_15h28.29.001,72,46.0,-4.0,4.0,10.0,0,0.0,-1.0,1545.0,1.0,-0.0,0.0
253,3,2022-03-07_15h28.29.001,73,51.0,1.0,1.0,10.0,0,0.0,-1.0,3604.0,0.0,-0.0,0.0
254,3,2022-03-07_15h28.29.001,74,48.0,-2.0,2.0,10.0,0,0.0,-1.0,1830.0,1.0,-0.0,0.0
255,3,2022-03-07_15h28.29.001,75,53.0,3.0,3.0,10.0,0,0.0,1.0,2025.0,1.0,-0.0,0.0
256,3,2022-03-07_15h28.29.001,76,49.0,-1.0,1.0,10.0,0,0.0,-1.0,3840.0,1.0,-0.0,0.0
257,3,2022-03-07_15h28.29.001,77,52.0,2.0,2.0,10.0,0,0.0,-1.0,2138.0,0.0,-0.0,0.0
258,3,2022-03-07_15h28.29.001,78,54.0,4.0,4.0,10.0,0,0.0,1.0,1984.0,1.0,-0.0,0.0
259,3,2022-03-07_15h28.29.001,79,47.0,-3.0,3.0,10.0,0,0.0,1.0,2540.0,0.0,-0.0,0.0
260,3,2022-03-07_15h28.29.001,80,52.0,2.0,2.0,0.05,0,0.0,1.0,1228.0,1.0,-0.0,0.0
261,3,2022-03-07_15h28.29.001,81,51.0,1.0,1.0,0.05,0,0.0,-1.0,1354.0,0.0,-0.0,0.0
262,3,2022-03-07_15h28.29.001,82,54.0,4.0,4.0,0.05,0,0.0,-1.0,3368.0,0.0,-0.0,0.0
263,3,2022-03-07_15h28.29.001,83,47.0,-3.0,3.0,0.05,0,0.0,-1.0,1771.0,1.0,-0.0,0.0
264,3,2022-03-07_15h28.29.001,84,53.0,3.0,3.0,0.05,0,0.0,1.0,2129.0,1.0,-0.0,0.0
265,3,2022-03-07_15h28.29.001,85,48.0,-2.0,2.0,0.05,0,0.0,-1.0,2772.0,1.0,-0.0,0.0
266,3,2022-03-07_15h28.29.001,86,49.0,-1.0,1.0,0.05,0,0.0,-1.0,4228.0,1.0,-0.0,0.0
267,3,2022-03-07_15h28.29.001,87,46.0,-4.0,4.0,0.05,0,0.0,-1.0,1760.0,1.0,-0.0,0.0
268,4,2022-03-08_14h13.50.931,1,49.0,-1.0,1.0,10.0,0,0.0,-1.0,1771.2,1.0,-0.0,0.0
269,4,2022-03-08_14h13.50.931,2,46.0,-4.0,4.0,10.0,0,0.0,-1.0,1438.5,1.0,-0.0,0.0
270,4,2022-03-08_14h13.50.931,3,54.0,4.0,4.0,10.0,0,0.0,1.0,1270.8,1.0,-0.0,0.0
271,4,2022-03-08_14h13.50.931,4,48.0,-2.0,2.0,10.0,0,0.0,-1.0,1035.3,1.0,-0.0,0.0
272,4,2022-03-08_14h13.50.931,5,53.0,3.0,3.0,10.0,0,0.0,1.0,1311.3,1.0,-0.0,0.0
273,4,2022-03-08_14h13.50.931,6,51.0,1.0,1.0,10.0,0,0.0,-1.0,1540.6,0.0,-0.0,0.0
274,4,2022-03-08_14h13.50.931,7,52.0,2.0,2.0,10.0,0,0.0,-1.0,2603.4,0.0,-0.0,0.0
275,4,2022-03-08_14h13.50.931,8,47.0,-3.0,3.0,10.0,0,0.0,-1.0,2428.8,1.0,-0.0,0.0
276,4,2022-03-08_14h13.50.931,9,48.0,-2.0,2.0,0.05,0,0.0,-1.0,1655.5,1.0,-0.0,0.0
277,4,2022-03-08_14h13.50.931,10,47.0,-3.0,3.0,0.05,0,0.0,-1.0,1417.2,1.0,-0.0,0.0
278,4,2022-03-08_14h13.50.931,11,53.0,3.0,3.0,0.05,0,0.0,1.0,1075.6,1.0,-0.0,0.0
279,4,2022-03-08_14h13.50.931,12,52.0,2.0,2.0,0.05,0,0.0,1.0,3283.0,1.0,-0.0,0.0
280,4,2022-03-08_14h13.50.931,13,51.0,1.0,1.0,0.05,0,0.0,-1.0,1600.9,0.0,-0.0,0.0
281,4,2022-03-08_14h13.50.931,14,46.0,-4.0,4.0,0.05,0,0.0,-1.0,1033.9,1.0,-0.0,0.0
282,4,2022-03-08_14h13.50.931,15,49.0,-1.0,1.0,0.05,0,0.0,-1.0,1150.5,1.0,-0.0,0.0
283,4,2022-03-08_14h13.50.931,16,54.0,4.0,4.0,0.05,0,0.0,-1.0,2797.3,0.0,-0.0,0.0
284,4,2022-03-08_14h13.50.931,17,54.0,4.0,4.0,0.05,0,0.0,1.0,3772.4,1.0,-0.0,0.0
285,4,2022-03-08_14h13.50.931,18,53.0,3.0,3.0,0.05,0,0.0,1.0,1308.5,1.0,-0.0,0.0
286,4,2022-03-08_14h13.50.931,19,46.0,-4.0,4.0,0.05,0,0.0,-1.0,988.1999999999999,1.0,-0.0,0.0
287,4,2022-03-08_14h13.50.931,20,48.0,-2.0,2.0,0.05,0,0.0,-1.0,1226.1,1.0,-0.0,0.0
288,4,2022-03-08_14h13.50.931,21,49.0,-1.0,1.0,0.05,0,0.0,-1.0,3667.0,1.0,-0.0,0.0
289,4,2022-03-08_14h13.50.931,22,51.0,1.0,1.0,0.05,0,0.0,-1.0,4678.099999999999,0.0,-0.0,0.0
290,4,2022-03-08_14h13.50.931,23,47.0,-3.0,3.0,0.05,0,0.0,-1.0,1190.1,1.0,-0.0,0.0
291,4,2022-03-08_14h13.50.931,24,52.0,2.0,2.0,0.05,0,0.0,1.0,977.1,1.0,-0.0,0.0
292,4,2022-03-08_14h13.50.931,25,52.0,2.0,2.0,10.0,0,0.0,-1.0,2275.3,0.0,-0.0,0.0
293,4,2022-03-08_14h13.50.931,26,46.0,-4.0,4.0,10.0,0,0.0,-1.0,901.5999999999999,1.0,-0.0,0.0
294,4,2022-03-08_14h13.50.931,27,54.0,4.0,4.0,10.0,0,0.0,1.0,2453.7,1.0,-0.0,0.0
295,4,2022-03-08_14h13.50.931,28,49.0,-1.0,1.0,10.0,0,0.0,-1.0,1773.8,1.0,-0.0,0.0
296,4,2022-03-08_14h13.50.931,29,53.0,3.0,3.0,10.0,0,0.0,-1.0,3603.0,0.0,-0.0,0.0
297,4,2022-03-08_14h13.50.931,30,51.0,1.0,1.0,10.0,0,0.0,-1.0,1263.4,0.0,-0.0,0.0
298,4,2022-03-08_14h13.50.931,31,48.0,-2.0,2.0,10.0,0,0.0,-1.0,1863.7,1.0,-0.0,0.0
299,4,2022-03-08_14h13.50.931,32,47.0,-3.0,3.0,10.0,0,0.0,-1.0,1286.8,1.0,-0.0,0.0
300,4,2022-03-08_14h13.50.931,33,52.0,2.0,2.0,0.05,-1,5.0,-1.0,1274.0,0.0,-1.0,4.0
301,4,2022-03-08_14h13.50.931,34,46.0,-4.0,4.0,0.05,1,5.0,-1.0,1791.7,1.0,-0.0,4.0
302,4,2022-03-08_14h13.50.931,35,51.0,1.0,1.0,0.05,-1,5.0,-1.0,1507.4,0.0,-1.0,3.0
303,4,2022-03-08_14h13.50.931,36,48.0,-2.0,2.0,0.05,1,5.0,-1.0,3031.2,1.0,-0.0,3.0
304,4,2022-03-08_14h13.50.931,37,49.0,-1.0,1.0,0.05,1,5.0,-1.0,1150.2,1.0,-0.0,3.0
305,4,2022-03-08_14h13.50.931,38,53.0,3.0,3.0,0.05,-1,5.0,1.0,3299.1,1.0,-0.0,3.0
306,4,2022-03-08_14h13.50.931,39,54.0,4.0,4.0,0.05,-1,5.0,1.0,1211.7,1.0,-0.0,3.0
307,4,2022-03-08_14h13.50.931,40,47.0,-3.0,3.0,0.05,1,5.0,-1.0,1310.6,1.0,-0.0,3.0
308,4,2022-03-08_14h13.50.931,41,47.0,-3.0,3.0,10.0,1,5.0,-1.0,2155.0,1.0,-0.0,3.0
309,4,2022-03-08_14h13.50.931,42,51.0,1.0,1.0,10.0,-1,5.0,-1.0,2421.8,0.0,-1.0,2.0
310,4,2022-03-08_14h13.50.931,43,49.0,-1.0,1.0,10.0,1,5.0,-1.0,1648.2,1.0,-0.0,2.0
311,4,2022-03-08_14h13.50.931,44,54.0,4.0,4.0,10.0,-1,5.0,1.0,1320.4,1.0,-0.0,2.0
312,4,2022-03-08_14h13.50.931,45,46.0,-4.0,4.0,10.0,1,5.0,-1.0,1174.7,1.0,-0.0,2.0
313,4,2022-03-08_14h13.50.931,46,48.0,-2.0,2.0,10.0,1,5.0,-1.0,1719.5,1.0,-0.0,2.0
314,4,2022-03-08_14h13.50.931,47,53.0,3.0,3.0,10.0,-1,5.0,1.0,3303.3,1.0,-0.0,2.0
315,4,2022-03-08_14h13.50.931,48,52.0,2.0,2.0,10.0,-1,5.0,1.0,2919.5,1.0,-0.0,2.0
316,4,2022-03-08_14h13.50.931,49,51.0,1.0,1.0,10.0,1,5.0,1.0,7407.2,1.0,-0.0,2.0
317,4,2022-03-08_14h13.50.931,50,49.0,-1.0,1.0,10.0,-1,5.0,-1.0,1092.9,1.0,-1.0,1.0
318,4,2022-03-08_14h13.50.931,51,46.0,-4.0,4.0,10.0,-1,5.0,-1.0,1137.1,1.0,-0.0,1.0
319,4,2022-03-08_14h13.50.931,52,48.0,-2.0,2.0,10.0,-1,5.0,-1.0,1945.9,1.0,-1.0,0.0
320,4,2022-03-08_14h13.50.931,53,53.0,3.0,3.0,10.0,1,5.0,1.0,2679.7,1.0,-0.0,5.0
321,4,2022-03-08_14h13.50.931,54,54.0,4.0,4.0,10.0,1,5.0,1.0,2575.0,1.0,-0.0,5.0
322,4,2022-03-08_14h13.50.931,55,48.0,-2.0,2.0,10.0,-1,5.0,-1.0,7114.200000000001,1.0,-1.0,4.0
323,4,2022-03-08_14h13.50.931,56,46.0,-4.0,4.0,10.0,-1,5.0,-1.0,2140.7,1.0,-0.0,4.0
324,4,2022-03-08_14h13.50.931,57,52.0,2.0,2.0,10.0,1,5.0,1.0,3298.6,1.0,-0.0,4.0
325,4,2022-03-08_14h13.50.931,58,49.0,-1.0,1.0,10.0,-1,5.0,-1.0,1567.5,1.0,-1.0,3.0
326,4,2022-03-08_14h13.50.931,59,51.0,1.0,1.0,10.0,1,5.0,1.0,7013.8,1.0,-0.0,3.0
327,4,2022-03-08_14h13.50.931,60,47.0,-3.0,3.0,10.0,-1,5.0,-1.0,1785.1,1.0,-0.0,3.0
328,4,2022-03-08_14h13.50.931,61,51.0,1.0,1.0,0.05,1,5.0,-1.0,7460.200000000001,0.0,-0.0,3.0
329,4,2022-03-08_14h13.50.931,62,48.0,-2.0,2.0,0.05,-1,5.0,-1.0,2185.5,1.0,-0.0,3.0
330,4,2022-03-08_14h13.50.931,63,53.0,3.0,3.0,0.05,1,5.0,1.0,10786.2,1.0,-0.0,3.0
331,4,2022-03-08_14h13.50.931,64,49.0,-1.0,1.0,0.05,-1,5.0,-1.0,2216.8,1.0,-0.0,3.0
332,4,2022-03-08_14h13.50.931,65,47.0,-3.0,3.0,0.05,-1,5.0,-1.0,2267.8,1.0,-0.0,3.0
333,4,2022-03-08_14h13.50.931,66,46.0,-4.0,4.0,0.05,-1,5.0,1.0,5645.400000000001,0.0,-0.0,3.0
334,4,2022-03-08_14h13.50.931,67,52.0,2.0,2.0,0.05,1,5.0,1.0,8711.9,1.0,-0.0,3.0
335,4,2022-03-08_14h13.50.931,68,54.0,4.0,4.0,0.05,1,5.0,1.0,2932.2,1.0,-0.0,3.0
336,4,2022-03-08_14h13.50.931,69,53.0,3.0,3.0,0.05,-1,5.0,1.0,10107.7,1.0,-1.0,2.0
337,4,2022-03-08_14h13.50.931,70,54.0,4.0,4.0,0.05,-1,5.0,1.0,7670.8,1.0,-1.0,1.0
338,4,2022-03-08_14h13.50.931,71,48.0,-2.0,2.0,0.05,1,5.0,-1.0,3472.3,1.0,-0.0,1.0
339,4,2022-03-08_14h13.50.931,72,49.0,-1.0,1.0,0.05,1,5.0,-1.0,3184.5,1.0,-0.0,1.0
340,4,2022-03-08_14h13.50.931,73,46.0,-4.0,4.0,0.05,1,5.0,-1.0,1780.9,1.0,-0.0,1.0
341,4,2022-03-08_14h13.50.931,74,52.0,2.0,2.0,0.05,-1,5.0,1.0,13625.5,1.0,-1.0,0.0
342,5,2022-03-08_13h47.10.246,1,46.0,-4.0,4.0,10.0,0,0.0,1.0,7580.9,0.0,-0.0,0.0
343,5,2022-03-08_13h47.10.246,2,51.0,1.0,1.0,10.0,0,0.0,1.0,1845.5,1.0,-0.0,0.0
344,5,2022-03-08_13h47.10.246,3,53.0,3.0,3.0,10.0,0,0.0,1.0,1832.3,1.0,-0.0,0.0
345,5,2022-03-08_13h47.10.246,4,48.0,-2.0,2.0,10.0,0,0.0,-1.0,2022.5,1.0,-0.0,0.0
346,5,2022-03-08_13h47.10.246,5,54.0,4.0,4.0,10.0,0,0.0,1.0,2806.5,1.0,-0.0,0.0
347,5,2022-03-08_13h47.10.246,6,49.0,-1.0,1.0,10.0,0,0.0,1.0,5172.5,0.0,-0.0,0.0
348,5,2022-03-08_13h47.10.246,7,47.0,-3.0,3.0,10.0,0,0.0,-1.0,1182.4,1.0,-0.0,0.0
349,5,2022-03-08_13h47.10.246,8,52.0,2.0,2.0,10.0,0,0.0,1.0,3144.6,1.0,-0.0,0.0
350,5,2022-03-08_13h47.10.246,9,47.0,-3.0,3.0,0.05,0,0.0,-1.0,1473.3,1.0,-0.0,0.0
351,5,2022-03-08_13h47.10.246,10,54.0,4.0,4.0,0.05,0,0.0,1.0,2210.8,1.0,-0.0,0.0
352,5,2022-03-08_13h47.10.246,11,49.0,-1.0,1.0,0.05,0,0.0,-1.0,1381.6,1.0,-0.0,0.0
353,5,2022-03-08_13h47.10.246,12,46.0,-4.0,4.0,0.05,0,0.0,-1.0,1265.7,1.0,-0.0,0.0
354,5,2022-03-08_13h47.10.246,13,53.0,3.0,3.0,0.05,0,0.0,1.0,1360.3,1.0,-0.0,0.0
355,5,2022-03-08_13h47.10.246,14,51.0,1.0,1.0,0.05,0,0.0,1.0,1323.8,1.0,-0.0,0.0
356,5,2022-03-08_13h47.10.246,15,52.0,2.0,2.0,0.05,0,0.0,1.0,1382.6,1.0,-0.0,0.0
357,5,2022-03-08_13h47.10.246,16,48.0,-2.0,2.0,0.05,0,0.0,-1.0,2073.9,1.0,-0.0,0.0
358,5,2022-03-08_13h47.10.246,17,53.0,3.0,3.0,10.0,0,0.0,1.0,3434.3,1.0,-0.0,0.0
359,5,2022-03-08_13h47.10.246,18,51.0,1.0,1.0,10.0,0,0.0,1.0,1305.1,1.0,-0.0,0.0
360,5,2022-03-08_13h47.10.246,19,52.0,2.0,2.0,10.0,0,0.0,-1.0,2279.0,0.0,-0.0,0.0
361,5,2022-03-08_13h47.10.246,20,47.0,-3.0,3.0,10.0,0,0.0,-1.0,1189.4,1.0,-0.0,0.0
362,5,2022-03-08_13h47.10.246,21,46.0,-4.0,4.0,10.0,0,0.0,-1.0,1828.5,1.0,-0.0,0.0
363,5,2022-03-08_13h47.10.246,22,54.0,4.0,4.0,10.0,0,0.0,1.0,1394.7,1.0,-0.0,0.0
364,5,2022-03-08_13h47.10.246,23,48.0,-2.0,2.0,10.0,0,0.0,-1.0,1242.7,1.0,-0.0,0.0
365,5,2022-03-08_13h47.10.246,24,49.0,-1.0,1.0,10.0,0,0.0,-1.0,3722.8,1.0,-0.0,0.0
366,5,2022-03-08_13h47.10.246,25,48.0,-2.0,2.0,0.05,0,0.0,-1.0,2809.0,1.0,-0.0,0.0
367,5,2022-03-08_13h47.10.246,26,46.0,-4.0,4.0,0.05,0,0.0,1.0,1801.2,0.0,-0.0,0.0
368,5,2022-03-08_13h47.10.246,27,54.0,4.0,4.0,0.05,0,0.0,1.0,1073.7,1.0,-0.0,0.0
369,5,2022-03-08_13h47.10.246,28,53.0,3.0,3.0,0.05,0,0.0,-1.0,1903.8,0.0,-0.0,0.0
370,5,2022-03-08_13h47.10.246,29,51.0,1.0,1.0,0.05,0,0.0,1.0,2222.8,1.0,-0.0,0.0
371,5,2022-03-08_13h47.10.246,30,47.0,-3.0,3.0,0.05,0,0.0,-1.0,1761.2,1.0,-0.0,0.0
372,5,2022-03-08_13h47.10.246,31,52.0,2.0,2.0,0.05,0,0.0,-1.0,2462.0,0.0,-0.0,0.0
373,5,2022-03-08_13h47.10.246,32,49.0,-1.0,1.0,0.05,0,0.0,1.0,2467.4,0.0,-0.0,0.0
374,5,2022-03-08_13h47.10.246,33,54.0,4.0,4.0,0.05,1,5.0,1.0,1486.1,1.0,-0.0,5.0
375,5,2022-03-08_13h47.10.246,34,47.0,-3.0,3.0,0.05,-1,5.0,-1.0,4120.5,1.0,-0.0,5.0
376,5,2022-03-08_13h47.10.246,35,48.0,-2.0,2.0,0.05,-1,5.0,-1.0,4075.599999999999,1.0,-0.0,5.0
377,5,2022-03-08_13h47.10.246,36,46.0,-4.0,4.0,0.05,-1,5.0,-1.0,2660.5,1.0,-1.0,4.0
378,5,2022-03-08_13h47.10.246,37,53.0,3.0,3.0,0.05,1,5.0,1.0,1789.5,1.0,-0.0,4.0
379,5,2022-03-08_13h47.10.246,38,49.0,-1.0,1.0,0.05,-1,5.0,1.0,2441.2,0.0,-0.0,4.0
380,5,2022-03-08_13h47.10.246,39,51.0,1.0,1.0,0.05,1,5.0,1.0,1307.6,1.0,-0.0,4.0
381,5,2022-03-08_13h47.10.246,40,52.0,2.0,2.0,0.05,1,5.0,1.0,1287.8,1.0,-0.0,4.0
382,5,2022-03-08_13h47.10.246,41,47.0,-3.0,3.0,0.05,1,5.0,-1.0,10387.4,1.0,-0.0,4.0
383,5,2022-03-08_13h47.10.246,42,53.0,3.0,3.0,0.05,-1,5.0,1.0,3546.2,1.0,-1.0,3.0
384,5,2022-03-08_13h47.10.246,43,52.0,2.0,2.0,0.05,-1,5.0,1.0,1641.6,1.0,-0.0,3.0
385,5,2022-03-08_13h47.10.246,44,48.0,-2.0,2.0,0.05,1,5.0,1.0,1602.8,0.0,-0.0,3.0
386,5,2022-03-08_13h47.10.246,45,51.0,1.0,1.0,0.05,-1,5.0,1.0,1907.6,1.0,-0.0,3.0
387,5,2022-03-08_13h47.10.246,46,49.0,-1.0,1.0,0.05,1,5.0,1.0,1341.0,0.0,-0.0,3.0
388,5,2022-03-08_13h47.10.246,47,54.0,4.0,4.0,0.05,-1,5.0,1.0,1022.9,1.0,-0.0,3.0
389,5,2022-03-08_13h47.10.246,48,46.0,-4.0,4.0,0.05,1,5.0,-1.0,1692.2,1.0,-0.0,3.0
390,5,2022-03-08_13h47.10.246,49,53.0,3.0,3.0,10.0,1,5.0,1.0,1392.2,1.0,-0.0,3.0
391,5,2022-03-08_13h47.10.246,50,51.0,1.0,1.0,10.0,1,5.0,1.0,1321.8,1.0,-0.0,3.0
392,5,2022-03-08_13h47.10.246,51,48.0,-2.0,2.0,10.0,-1,5.0,-1.0,2641.5,1.0,-0.0,3.0
393,5,2022-03-08_13h47.10.246,52,47.0,-3.0,3.0,10.0,-1,5.0,1.0,1329.4,0.0,-0.0,3.0
394,5,2022-03-08_13h47.10.246,53,49.0,-1.0,1.0,10.0,-1,5.0,1.0,4634.400000000001,0.0,-0.0,3.0
395,5,2022-03-08_13h47.10.246,54,52.0,2.0,2.0,10.0,1,5.0,1.0,1550.4,1.0,-0.0,3.0
396,5,2022-03-08_13h47.10.246,55,46.0,-4.0,4.0,10.0,-1,5.0,-1.0,3130.4,1.0,-1.0,2.0
397,5,2022-03-08_13h47.10.246,56,54.0,4.0,4.0,10.0,1,5.0,1.0,1394.9,1.0,-0.0,2.0
398,5,2022-03-08_13h47.10.246,57,53.0,3.0,3.0,10.0,-1,5.0,1.0,2186.4,1.0,-1.0,1.0
399,5,2022-03-08_13h47.10.246,58,52.0,2.0,2.0,10.0,-1,5.0,1.0,1491.6,1.0,-1.0,0.0
400,5,2022-03-08_13h47.10.246,59,47.0,-3.0,3.0,10.0,-1,5.0,1.0,3592.6,0.0,-0.0,5.0
401,5,2022-03-08_13h47.10.246,60,53.0,3.0,3.0,10.0,1,5.0,1.0,1233.4,1.0,-0.0,5.0
402,5,2022-03-08_13h47.10.246,61,51.0,1.0,1.0,10.0,1,5.0,1.0,1017.2,1.0,-0.0,5.0
403,5,2022-03-08_13h47.10.246,62,52.0,2.0,2.0,10.0,1,5.0,-1.0,1651.1,0.0,-0.0,5.0
404,5,2022-03-08_13h47.10.246,63,49.0,-1.0,1.0,10.0,-1,5.0,-1.0,5649.099999999999,1.0,-0.0,5.0
405,5,2022-03-08_13h47.10.246,64,54.0,4.0,4.0,10.0,1,5.0,1.0,866.9,1.0,-0.0,5.0
406,5,2022-03-08_13h47.10.246,65,48.0,-2.0,2.0,10.0,-1,5.0,-1.0,1263.1,1.0,-1.0,4.0
407,5,2022-03-08_13h47.10.246,66,46.0,-4.0,4.0,10.0,-1,5.0,-1.0,6617.000000000001,1.0,-1.0,3.0
408,5,2022-03-08_13h47.10.246,67,51.0,1.0,1.0,10.0,-1,5.0,1.0,1446.6,1.0,-1.0,2.0
409,5,2022-03-08_13h47.10.246,68,52.0,2.0,2.0,10.0,-1,5.0,1.0,1881.9,1.0,-0.0,2.0
410,5,2022-03-08_13h47.10.246,69,53.0,3.0,3.0,10.0,-1,5.0,1.0,883.3,1.0,-0.0,2.0
411,5,2022-03-08_13h47.10.246,70,54.0,4.0,4.0,10.0,-1,5.0,1.0,1266.6,1.0,-1.0,1.0
412,5,2022-03-08_13h47.10.246,71,49.0,-1.0,1.0,10.0,1,5.0,1.0,1118.8,0.0,-0.0,1.0
413,5,2022-03-08_13h47.10.246,72,47.0,-3.0,3.0,10.0,1,5.0,1.0,1315.2,0.0,-0.0,1.0
414,5,2022-03-08_13h47.10.246,73,48.0,-2.0,2.0,10.0,1,5.0,-1.0,5546.599999999999,1.0,-0.0,1.0
415,5,2022-03-08_13h47.10.246,74,46.0,-4.0,4.0,10.0,1,5.0,-1.0,905.0,1.0,-0.0,1.0
416,5,2022-03-08_13h47.10.246,75,52.0,2.0,2.0,0.05,1,5.0,1.0,2693.7,1.0,-0.0,1.0
417,5,2022-03-08_13h47.10.246,76,46.0,-4.0,4.0,0.05,-1,5.0,1.0,1222.2,0.0,-0.0,1.0
418,5,2022-03-08_13h47.10.246,77,47.0,-3.0,3.0,0.05,-1,5.0,1.0,4037.6,0.0,-1.0,0.0
419,6,2022-03-08_13h49.20.894,1,54.0,4.0,4.0,0.05,0,0.0,1.0,1490.0,1.0,-0.0,0.0
420,6,2022-03-08_13h49.20.894,2,48.0,-2.0,2.0,0.05,0,0.0,1.0,1804.0,0.0,-0.0,0.0
421,6,2022-03-08_13h49.20.894,3,46.0,-4.0,4.0,0.05,0,0.0,1.0,1565.0,0.0,-0.0,0.0
422,6,2022-03-08_13h49.20.894,4,52.0,2.0,2.0,0.05,0,0.0,1.0,1354.0,1.0,-0.0,0.0
423,6,2022-03-08_13h49.20.894,5,49.0,-1.0,1.0,0.05,0,0.0,1.0,1095.0,0.0,-0.0,0.0
424,6,2022-03-08_13h49.20.894,6,53.0,3.0,3.0,0.05,0,0.0,1.0,1335.0,1.0,-0.0,0.0
425,6,2022-03-08_13h49.20.894,7,47.0,-3.0,3.0,0.05,0,0.0,-1.0,1112.0,1.0,-0.0,0.0
426,6,2022-03-08_13h49.20.894,8,51.0,1.0,1.0,0.05,0,0.0,1.0,1711.0,1.0,-0.0,0.0
427,6,2022-03-08_13h49.20.894,9,52.0,2.0,2.0,0.05,0,0.0,1.0,1389.0,1.0,-0.0,0.0
428,6,2022-03-08_13h49.20.894,10,48.0,-2.0,2.0,0.05,0,0.0,1.0,1220.0,0.0,-0.0,0.0
429,6,2022-03-08_13h49.20.894,11,46.0,-4.0,4.0,0.05,0,0.0,1.0,1741.0,0.0,-0.0,0.0
430,6,2022-03-08_13h49.20.894,12,53.0,3.0,3.0,0.05,0,0.0,1.0,1079.0,1.0,-0.0,0.0
431,6,2022-03-08_13h49.20.894,13,54.0,4.0,4.0,0.05,0,0.0,1.0,1482.0,1.0,-0.0,0.0
432,6,2022-03-08_13h49.20.894,14,49.0,-1.0,1.0,0.05,0,0.0,-1.0,1649.0,1.0,-0.0,0.0
433,6,2022-03-08_13h49.20.894,15,51.0,1.0,1.0,0.05,0,0.0,1.0,1336.0,1.0,-0.0,0.0
434,6,2022-03-08_13h49.20.894,16,47.0,-3.0,3.0,0.05,0,0.0,-1.0,1361.0,1.0,-0.0,0.0
435,6,2022-03-08_13h49.20.894,17,53.0,3.0,3.0,10.0,0,0.0,1.0,929.0,1.0,-0.0,0.0
436,6,2022-03-08_13h49.20.894,18,46.0,-4.0,4.0,10.0,0,0.0,1.0,1772.0,0.0,-0.0,0.0
437,6,2022-03-08_13h49.20.894,19,52.0,2.0,2.0,10.0,0,0.0,1.0,1153.0,1.0,-0.0,0.0
438,6,2022-03-08_13h49.20.894,20,48.0,-2.0,2.0,10.0,0,0.0,-1.0,1629.0,1.0,-0.0,0.0
439,6,2022-03-08_13h49.20.894,21,54.0,4.0,4.0,10.0,0,0.0,1.0,1139.0,1.0,-0.0,0.0
440,6,2022-03-08_13h49.20.894,22,49.0,-1.0,1.0,10.0,0,0.0,-1.0,2127.0,1.0,-0.0,0.0
441,6,2022-03-08_13h49.20.894,23,47.0,-3.0,3.0,10.0,0,0.0,1.0,1546.0,0.0,-0.0,0.0
442,6,2022-03-08_13h49.20.894,24,51.0,1.0,1.0,10.0,0,0.0,1.0,900.0,1.0,-0.0,0.0
443,6,2022-03-08_13h49.20.894,25,46.0,-4.0,4.0,10.0,0,0.0,-1.0,2563.0,1.0,-0.0,0.0
444,6,2022-03-08_13h49.20.894,26,49.0,-1.0,1.0,10.0,0,0.0,1.0,1280.0,0.0,-0.0,0.0
445,6,2022-03-08_13h49.20.894,27,53.0,3.0,3.0,10.0,0,0.0,1.0,930.9999999999999,1.0,-0.0,0.0
446,6,2022-03-08_13h49.20.894,28,54.0,4.0,4.0,10.0,0,0.0,1.0,1130.0,1.0,-0.0,0.0
447,6,2022-03-08_13h49.20.894,29,48.0,-2.0,2.0,10.0,0,0.0,1.0,2095.0,0.0,-0.0,0.0
448,6,2022-03-08_13h49.20.894,30,52.0,2.0,2.0,10.0,0,0.0,1.0,951.0,1.0,-0.0,0.0
449,6,2022-03-08_13h49.20.894,31,47.0,-3.0,3.0,10.0,0,0.0,1.0,1127.0,0.0,-0.0,0.0
450,6,2022-03-08_13h49.20.894,32,51.0,1.0,1.0,10.0,0,0.0,1.0,1102.0,1.0,-0.0,0.0
451,6,2022-03-08_13h49.20.894,33,52.0,2.0,2.0,10.0,-1,5.0,1.0,1096.0,1.0,-0.0,5.0
452,6,2022-03-08_13h49.20.894,34,49.0,-1.0,1.0,10.0,1,5.0,1.0,1070.0,0.0,-0.0,5.0
453,6,2022-03-08_13h49.20.894,35,48.0,-2.0,2.0,10.0,1,5.0,-1.0,1536.0,1.0,-0.0,5.0
454,6,2022-03-08_13h49.20.894,36,51.0,1.0,1.0,10.0,-1,5.0,1.0,952.0000000000001,1.0,-0.0,5.0
455,6,2022-03-08_13h49.20.894,37,46.0,-4.0,4.0,10.0,1,5.0,1.0,1564.0,0.0,-0.0,5.0
456,6,2022-03-08_13h49.20.894,38,54.0,4.0,4.0,10.0,-1,5.0,1.0,902.0,1.0,-0.0,5.0
457,6,2022-03-08_13h49.20.894,39,47.0,-3.0,3.0,10.0,1,5.0,1.0,1997.0,0.0,-0.0,5.0
458,6,2022-03-08_13h49.20.894,40,53.0,3.0,3.0,10.0,-1,5.0,1.0,1599.0,1.0,-1.0,4.0
459,6,2022-03-08_13h49.20.894,41,48.0,-2.0,2.0,0.05,1,5.0,-1.0,1739.0,1.0,-0.0,4.0
460,6,2022-03-08_13h49.20.894,42,46.0,-4.0,4.0,0.05,1,5.0,1.0,2276.0,0.0,-0.0,4.0
461,6,2022-03-08_13h49.20.894,43,49.0,-1.0,1.0,0.05,1,5.0,1.0,1276.0,0.0,-0.0,4.0
462,6,2022-03-08_13h49.20.894,44,54.0,4.0,4.0,0.05,-1,5.0,1.0,1565.0,1.0,-0.0,4.0
463,6,2022-03-08_13h49.20.894,45,52.0,2.0,2.0,0.05,-1,5.0,1.0,1447.0,1.0,-0.0,4.0
464,6,2022-03-08_13h49.20.894,46,47.0,-3.0,3.0,0.05,1,5.0,-1.0,2229.0,1.0,-0.0,4.0
465,6,2022-03-08_13h49.20.894,47,53.0,3.0,3.0,0.05,-1,5.0,1.0,1183.0,1.0,-0.0,4.0
466,6,2022-03-08_13h49.20.894,48,51.0,1.0,1.0,0.05,-1,5.0,1.0,1812.0,1.0,-0.0,4.0
467,6,2022-03-08_13h49.20.894,49,48.0,-2.0,2.0,0.05,-1,5.0,-1.0,2401.0,1.0,-0.0,4.0
468,6,2022-03-08_13h49.20.894,50,47.0,-3.0,3.0,0.05,-1,5.0,1.0,1263.0,0.0,-1.0,3.0
469,6,2022-03-08_13h49.20.894,51,49.0,-1.0,1.0,0.05,-1,5.0,1.0,1188.0,0.0,-0.0,3.0
470,6,2022-03-08_13h49.20.894,52,54.0,4.0,4.0,0.05,1,5.0,1.0,3284.0,1.0,-0.0,3.0
471,6,2022-03-08_13h49.20.894,53,53.0,3.0,3.0,0.05,1,5.0,1.0,1360.0,1.0,-0.0,3.0
472,6,2022-03-08_13h49.20.894,54,46.0,-4.0,4.0,0.05,-1,5.0,1.0,2125.0,0.0,-0.0,3.0
473,6,2022-03-08_13h49.20.894,55,52.0,2.0,2.0,0.05,1,5.0,1.0,2674.0,1.0,-0.0,3.0
474,6,2022-03-08_13h49.20.894,56,51.0,1.0,1.0,0.05,1,5.0,1.0,1554.0,1.0,-0.0,3.0
475,6,2022-03-08_13h49.20.894,57,51.0,1.0,1.0,10.0,1,5.0,1.0,1954.0,1.0,-0.0,3.0
476,6,2022-03-08_13h49.20.894,58,52.0,2.0,2.0,10.0,1,5.0,1.0,1467.0,1.0,-0.0,3.0
477,6,2022-03-08_13h49.20.894,59,46.0,-4.0,4.0,10.0,-1,5.0,-1.0,1663.0,1.0,-0.0,3.0
478,6,2022-03-08_13h49.20.894,60,48.0,-2.0,2.0,10.0,-1,5.0,-1.0,2514.0,1.0,-0.0,3.0
479,6,2022-03-08_13h49.20.894,61,47.0,-3.0,3.0,10.0,-1,5.0,-1.0,2147.0,1.0,-1.0,2.0
480,6,2022-03-08_13h49.20.894,62,49.0,-1.0,1.0,10.0,-1,5.0,-1.0,2081.0,1.0,-1.0,1.0
481,6,2022-03-08_13h49.20.894,63,53.0,3.0,3.0,10.0,1,5.0,1.0,1136.0,1.0,-0.0,1.0
482,6,2022-03-08_13h49.20.894,64,54.0,4.0,4.0,10.0,1,5.0,1.0,1198.0,1.0,-0.0,1.0
483,6,2022-03-08_13h49.20.894,65,46.0,-4.0,4.0,10.0,-1,5.0,-1.0,2223.0,1.0,-0.0,5.0
484,6,2022-03-08_13h49.20.894,66,47.0,-3.0,3.0,10.0,-1,5.0,1.0,3412.0,0.0,-0.0,5.0
485,6,2022-03-08_13h49.20.894,67,54.0,4.0,4.0,10.0,1,5.0,1.0,1229.0,1.0,-0.0,5.0
486,6,2022-03-08_13h49.20.894,68,53.0,3.0,3.0,10.0,1,5.0,1.0,845.0,1.0,-0.0,5.0
487,6,2022-03-08_13h49.20.894,69,49.0,-1.0,1.0,10.0,-1,5.0,1.0,1630.0,0.0,-0.0,5.0
488,6,2022-03-08_13h49.20.894,70,51.0,1.0,1.0,10.0,1,5.0,1.0,1080.0,1.0,-0.0,5.0
489,6,2022-03-08_13h49.20.894,71,48.0,-2.0,2.0,10.0,-1,5.0,-1.0,2002.0,1.0,-0.0,5.0
490,6,2022-03-08_13h49.20.894,72,52.0,2.0,2.0,10.0,1,5.0,1.0,1378.0,1.0,-0.0,5.0
491,6,2022-03-08_13h49.20.894,73,48.0,-2.0,2.0,0.05,-1,5.0,-1.0,2013.0,1.0,-0.0,5.0
492,6,2022-03-08_13h49.20.894,74,53.0,3.0,3.0,0.05,1,5.0,1.0,1435.0,1.0,-0.0,5.0
493,6,2022-03-08_13h49.20.894,75,49.0,-1.0,1.0,0.05,-1,5.0,-1.0,2103.0,1.0,-0.0,5.0
494,6,2022-03-08_13h49.20.894,76,51.0,1.0,1.0,0.05,1,5.0,1.0,1390.0,1.0,-0.0,5.0
495,6,2022-03-08_13h49.20.894,77,52.0,2.0,2.0,0.05,1,5.0,1.0,984.0000000000001,1.0,-0.0,5.0
496,6,2022-03-08_13h49.20.894,78,47.0,-3.0,3.0,0.05,-1,5.0,-1.0,1661.0,1.0,-1.0,4.0
497,6,2022-03-08_13h49.20.894,79,46.0,-4.0,4.0,0.05,-1,5.0,-1.0,1995.0,1.0,-0.0,4.0
498,6,2022-03-08_13h49.20.894,80,54.0,4.0,4.0,0.05,1,5.0,1.0,1095.0,1.0,-0.0,4.0
499,6,2022-03-08_13h49.20.894,81,51.0,1.0,1.0,10.0,-1,5.0,1.0,1472.0,1.0,-1.0,3.0
500,6,2022-03-08_13h49.20.894,82,52.0,2.0,2.0,10.0,-1,5.0,1.0,1395.0,1.0,-1.0,2.0
501,6,2022-03-08_13h49.20.894,83,53.0,3.0,3.0,10.0,-1,5.0,1.0,1283.0,1.0,-0.0,2.0
502,6,2022-03-08_13h49.20.894,84,47.0,-3.0,3.0,10.0,1,5.0,-1.0,1884.0,1.0,-0.0,2.0
503,6,2022-03-08_13h49.20.894,85,46.0,-4.0,4.0,10.0,1,5.0,-1.0,1862.0,1.0,-0.0,2.0
504,6,2022-03-08_13h49.20.894,86,49.0,-1.0,1.0,10.0,1,5.0,1.0,1196.0,0.0,-0.0,2.0
505,6,2022-03-08_13h49.20.894,87,48.0,-2.0,2.0,10.0,1,5.0,1.0,1095.0,0.0,-0.0,2.0
506,6,2022-03-08_13h49.20.894,88,54.0,4.0,4.0,10.0,-1,5.0,1.0,1325.0,1.0,-0.0,2.0
507,6,2022-03-08_13h49.20.894,89,47.0,-3.0,3.0,0.05,1,5.0,-1.0,1379.0,1.0,-0.0,2.0
508,6,2022-03-08_13h49.20.894,90,51.0,1.0,1.0,0.05,-1,5.0,1.0,1052.0,1.0,-0.0,2.0
509,6,2022-03-08_13h49.20.894,91,52.0,2.0,2.0,0.05,-1,5.0,1.0,1122.0,1.0,-1.0,1.0
510,6,2022-03-08_13h49.20.894,92,53.0,3.0,3.0,0.05,-1,5.0,1.0,1065.0,1.0,-0.0,1.0
511,6,2022-03-08_13h49.20.894,93,54.0,4.0,4.0,0.05,-1,5.0,1.0,1030.0,1.0,-0.0,1.0
512,6,2022-03-08_13h49.20.894,94,46.0,-4.0,4.0,0.05,1,5.0,1.0,1878.0,0.0,-0.0,1.0
513,6,2022-03-08_13h49.20.894,95,48.0,-2.0,2.0,0.05,1,5.0,1.0,2449.0,0.0,-0.0,1.0
514,6,2022-03-08_13h49.20.894,96,49.0,-1.0,1.0,0.05,1,5.0,1.0,1011.0,0.0,-0.0,1.0
515,7,2022-03-08_09h35.06.420,1,53.0,3.0,3.0,10.0,-1,5.0,1.0,3216.7,1.0,-0.0,5.0
516,7,2022-03-08_09h35.06.420,2,51.0,1.0,1.0,10.0,-1,5.0,1.0,3716.4,1.0,-1.0,4.0
517,7,2022-03-08_09h35.06.420,3,47.0,-3.0,3.0,10.0,1,5.0,1.0,4566.0,0.0,-0.0,4.0
518,7,2022-03-08_09h35.06.420,4,46.0,-4.0,4.0,10.0,1,5.0,-1.0,6632.5,1.0,-0.0,4.0
519,7,2022-03-08_09h35.06.420,5,49.0,-1.0,1.0,10.0,1,5.0,1.0,5815.5,0.0,-0.0,4.0
520,7,2022-03-08_09h35.06.420,6,52.0,2.0,2.0,10.0,-1,5.0,1.0,3266.0,1.0,-1.0,3.0
521,7,2022-03-08_09h35.06.420,7,54.0,4.0,4.0,10.0,-1,5.0,1.0,2882.7,1.0,-0.0,3.0
522,7,2022-03-08_09h35.06.420,8,48.0,-2.0,2.0,10.0,1,5.0,1.0,3566.8,0.0,-0.0,3.0
523,7,2022-03-08_09h35.06.420,9,47.0,-3.0,3.0,0.05,1,5.0,1.0,7878.3,0.0,-0.0,3.0
524,7,2022-03-08_09h35.06.420,10,53.0,3.0,3.0,0.05,-1,5.0,1.0,3249.4,1.0,-1.0,2.0
525,7,2022-03-08_09h35.06.420,11,46.0,-4.0,4.0,0.05,1,5.0,1.0,4082.7,0.0,-0.0,2.0
526,7,2022-03-08_09h35.06.420,12,49.0,-1.0,1.0,0.05,1,5.0,1.0,5182.7,0.0,-0.0,2.0
527,7,2022-03-08_09h35.06.420,13,52.0,2.0,2.0,0.05,-1,5.0,1.0,2870.1,1.0,-0.0,2.0
528,7,2022-03-08_09h35.06.420,14,48.0,-2.0,2.0,0.05,1,5.0,1.0,2616.9,0.0,-0.0,2.0
529,7,2022-03-08_09h35.06.420,15,51.0,1.0,1.0,0.05,-1,5.0,1.0,2332.8,1.0,-1.0,1.0
530,7,2022-03-08_09h35.06.420,16,54.0,4.0,4.0,0.05,-1,5.0,1.0,2749.2,1.0,-1.0,0.0
531,7,2022-03-08_09h35.06.420,17,46.0,-4.0,4.0,0.05,1,5.0,-1.0,3876.2,1.0,-0.0,5.0
532,7,2022-03-08_09h35.06.420,18,48.0,-2.0,2.0,0.05,1,5.0,1.0,3460.9,0.0,-0.0,5.0
533,7,2022-03-08_09h35.06.420,19,54.0,4.0,4.0,0.05,-1,5.0,1.0,2754.9,1.0,-0.0,5.0
534,7,2022-03-08_09h35.06.420,20,52.0,2.0,2.0,0.05,-1,5.0,1.0,3227.5,1.0,-0.0,5.0
535,7,2022-03-08_09h35.06.420,21,49.0,-1.0,1.0,0.05,1,5.0,1.0,7718.4,0.0,-0.0,5.0
536,7,2022-03-08_09h35.06.420,22,47.0,-3.0,3.0,0.05,1,5.0,1.0,2425.0,0.0,-0.0,5.0
537,7,2022-03-08_09h35.06.420,23,53.0,3.0,3.0,0.05,-1,5.0,1.0,2663.5,1.0,-0.0,5.0
538,7,2022-03-08_09h35.06.420,24,51.0,1.0,1.0,0.05,-1,5.0,1.0,2572.6,1.0,-0.0,5.0
539,7,2022-03-08_09h35.06.420,25,49.0,-1.0,1.0,10.0,-1,5.0,1.0,2813.7,0.0,-0.0,5.0
540,7,2022-03-08_09h35.06.420,26,53.0,3.0,3.0,10.0,1,5.0,1.0,2557.8,1.0,-0.0,5.0
541,7,2022-03-08_09h35.06.420,27,54.0,4.0,4.0,10.0,1,5.0,1.0,2744.4,1.0,-0.0,5.0
542,7,2022-03-08_09h35.06.420,28,48.0,-2.0,2.0,10.0,-1,5.0,-1.0,8030.799999999999,1.0,-1.0,4.0
543,7,2022-03-08_09h35.06.420,29,52.0,2.0,2.0,10.0,1,5.0,1.0,3332.4,1.0,-0.0,4.0
544,7,2022-03-08_09h35.06.420,30,46.0,-4.0,4.0,10.0,-1,5.0,1.0,4212.900000000001,0.0,-0.0,4.0
545,7,2022-03-08_09h35.06.420,31,47.0,-3.0,3.0,10.0,-1,5.0,1.0,9615.8,0.0,-0.0,4.0
546,7,2022-03-08_09h35.06.420,32,51.0,1.0,1.0,10.0,1,5.0,1.0,2152.9,1.0,-0.0,4.0
547,7,2022-03-08_09h35.06.420,33,47.0,-3.0,3.0,10.0,1,5.0,-1.0,8727.6,1.0,-0.0,4.0
548,7,2022-03-08_09h35.06.420,34,53.0,3.0,3.0,10.0,-1,5.0,1.0,3710.0,1.0,-0.0,4.0
549,7,2022-03-08_09h35.06.420,35,49.0,-1.0,1.0,10.0,1,5.0,1.0,3846.6,0.0,-0.0,4.0
550,7,2022-03-08_09h35.06.420,36,52.0,2.0,2.0,10.0,-1,5.0,1.0,2763.5,1.0,-0.0,4.0
551,7,2022-03-08_09h35.06.420,37,48.0,-2.0,2.0,10.0,1,5.0,1.0,5572.8,0.0,-0.0,4.0
552,7,2022-03-08_09h35.06.420,38,46.0,-4.0,4.0,10.0,1,5.0,1.0,6037.200000000001,0.0,-0.0,4.0
553,7,2022-03-08_09h35.06.420,39,51.0,1.0,1.0,10.0,-1,5.0,1.0,2823.8,1.0,-1.0,3.0
554,7,2022-03-08_09h35.06.420,40,54.0,4.0,4.0,10.0,-1,5.0,1.0,2233.4,1.0,-0.0,3.0
555,7,2022-03-08_09h35.06.420,41,48.0,-2.0,2.0,0.05,-1,5.0,1.0,4910.599999999999,0.0,-1.0,2.0
556,7,2022-03-08_09h35.06.420,42,54.0,4.0,4.0,0.05,1,5.0,1.0,1430.6,1.0,-0.0,2.0
557,7,2022-03-08_09h35.06.420,43,51.0,1.0,1.0,0.05,1,5.0,1.0,2822.2,1.0,-0.0,2.0
558,7,2022-03-08_09h35.06.420,44,46.0,-4.0,4.0,0.05,-1,5.0,1.0,2352.0,0.0,-1.0,1.0
559,7,2022-03-08_09h35.06.420,45,53.0,3.0,3.0,0.05,1,5.0,1.0,1570.1,1.0,-0.0,1.0
560,7,2022-03-08_09h35.06.420,46,52.0,2.0,2.0,0.05,1,5.0,1.0,2788.8,1.0,-0.0,1.0
561,7,2022-03-08_09h35.06.420,47,47.0,-3.0,3.0,0.05,-1,5.0,1.0,2294.4,0.0,-0.0,1.0
562,7,2022-03-08_09h35.06.420,48,49.0,-1.0,1.0,0.05,-1,5.0,1.0,10247.6,0.0,-0.0,1.0
563,7,2022-03-08_09h35.06.420,49,49.0,-1.0,1.0,10.0,0,0.0,1.0,5781.1,0.0,-0.0,0.0
564,7,2022-03-08_09h35.06.420,50,54.0,4.0,4.0,10.0,0,0.0,1.0,2490.4,1.0,-0.0,0.0
565,7,2022-03-08_09h35.06.420,51,46.0,-4.0,4.0,10.0,0,0.0,1.0,2403.7,0.0,-0.0,0.0
566,7,2022-03-08_09h35.06.420,52,53.0,3.0,3.0,10.0,0,0.0,-1.0,2390.0,0.0,-0.0,0.0
567,7,2022-03-08_09h35.06.420,53,51.0,1.0,1.0,10.0,0,0.0,-1.0,1537.7,0.0,-0.0,0.0
568,7,2022-03-08_09h35.06.420,54,47.0,-3.0,3.0,10.0,0,0.0,1.0,4819.5,0.0,-0.0,0.0
569,7,2022-03-08_09h35.06.420,55,52.0,2.0,2.0,10.0,0,0.0,-1.0,1949.9,0.0,-0.0,0.0
570,7,2022-03-08_09h35.06.420,56,48.0,-2.0,2.0,10.0,0,0.0,1.0,8090.6,0.0,-0.0,0.0
571,7,2022-03-08_09h35.06.420,57,53.0,3.0,3.0,10.0,0,0.0,1.0,3178.7,1.0,-0.0,0.0
572,7,2022-03-08_09h35.06.420,58,52.0,2.0,2.0,10.0,0,0.0,-1.0,2156.9,0.0,-0.0,0.0
573,7,2022-03-08_09h35.06.420,59,48.0,-2.0,2.0,10.0,0,0.0,-1.0,5571.3,1.0,-0.0,0.0
574,7,2022-03-08_09h35.06.420,60,51.0,1.0,1.0,10.0,0,0.0,1.0,3194.1,1.0,-0.0,0.0
575,7,2022-03-08_09h35.06.420,61,46.0,-4.0,4.0,10.0,0,0.0,-1.0,5497.3,1.0,-0.0,0.0
576,7,2022-03-08_09h35.06.420,62,47.0,-3.0,3.0,10.0,0,0.0,1.0,3206.5,0.0,-0.0,0.0
577,7,2022-03-08_09h35.06.420,63,49.0,-1.0,1.0,10.0,0,0.0,1.0,3185.5,0.0,-0.0,0.0
578,7,2022-03-08_09h35.06.420,64,54.0,4.0,4.0,10.0,0,0.0,1.0,2627.6,1.0,-0.0,0.0
579,7,2022-03-08_09h35.06.420,65,48.0,-2.0,2.0,0.05,0,0.0,1.0,2437.1,0.0,-0.0,0.0
580,7,2022-03-08_09h35.06.420,66,54.0,4.0,4.0,0.05,0,0.0,1.0,1764.0,1.0,-0.0,0.0
581,7,2022-03-08_09h35.06.420,67,51.0,1.0,1.0,0.05,0,0.0,1.0,3048.7,1.0,-0.0,0.0
582,7,2022-03-08_09h35.06.420,68,47.0,-3.0,3.0,0.05,0,0.0,-1.0,6782.3,1.0,-0.0,0.0
583,7,2022-03-08_09h35.06.420,69,49.0,-1.0,1.0,0.05,0,0.0,-1.0,3386.8,1.0,-0.0,0.0
584,7,2022-03-08_09h35.06.420,70,46.0,-4.0,4.0,0.05,0,0.0,-1.0,3316.8,1.0,-0.0,0.0
585,7,2022-03-08_09h35.06.420,71,53.0,3.0,3.0,0.05,0,0.0,1.0,2593.6,1.0,-0.0,0.0
586,7,2022-03-08_09h35.06.420,72,52.0,2.0,2.0,0.05,0,0.0,1.0,4148.7,1.0,-0.0,0.0
587,7,2022-03-08_09h35.06.420,73,53.0,3.0,3.0,0.05,0,0.0,1.0,2080.4,1.0,-0.0,0.0
588,7,2022-03-08_09h35.06.420,74,49.0,-1.0,1.0,0.05,0,0.0,1.0,4111.2,0.0,-0.0,0.0
589,7,2022-03-08_09h35.06.420,75,47.0,-3.0,3.0,0.05,0,0.0,-1.0,3651.4,1.0,-0.0,0.0
590,7,2022-03-08_09h35.06.420,76,54.0,4.0,4.0,0.05,0,0.0,1.0,2113.3,1.0,-0.0,0.0
591,7,2022-03-08_09h35.06.420,77,48.0,-2.0,2.0,0.05,0,0.0,-1.0,7554.400000000001,1.0,-0.0,0.0
592,7,2022-03-08_09h35.06.420,78,52.0,2.0,2.0,0.05,0,0.0,1.0,1943.0,1.0,-0.0,0.0
593,7,2022-03-08_09h35.06.420,79,51.0,1.0,1.0,0.05,0,0.0,1.0,1746.6,1.0,-0.0,0.0
594,7,2022-03-08_09h35.06.420,80,46.0,-4.0,4.0,0.05,0,0.0,1.0,5047.3,0.0,-0.0,0.0
595,8,2022-03-08_13h57.40.042,1,53.0,3.0,3.0,0.05,0,0.0,1.0,1655.4,1.0,-0.0,0.0
596,8,2022-03-08_13h57.40.042,2,47.0,-3.0,3.0,0.05,0,0.0,-1.0,1228.2,1.0,-0.0,0.0
597,8,2022-03-08_13h57.40.042,3,49.0,-1.0,1.0,0.05,0,0.0,1.0,1906.2,0.0,-0.0,0.0
598,8,2022-03-08_13h57.40.042,4,52.0,2.0,2.0,0.05,0,0.0,-1.0,2618.5,0.0,-0.0,0.0
599,8,2022-03-08_13h57.40.042,5,46.0,-4.0,4.0,0.05,0,0.0,-1.0,1759.0,1.0,-0.0,0.0
600,8,2022-03-08_13h57.40.042,6,54.0,4.0,4.0,0.05,0,0.0,1.0,997.3,1.0,-0.0,0.0
601,8,2022-03-08_13h57.40.042,7,48.0,-2.0,2.0,0.05,0,0.0,-1.0,1264.1,1.0,-0.0,0.0
602,8,2022-03-08_13h57.40.042,8,51.0,1.0,1.0,0.05,0,0.0,1.0,2061.9,1.0,-0.0,0.0
603,8,2022-03-08_13h57.40.042,9,51.0,1.0,1.0,0.05,0,0.0,1.0,2776.1,1.0,-0.0,0.0
604,8,2022-03-08_13h57.40.042,10,53.0,3.0,3.0,0.05,0,0.0,1.0,1577.7,1.0,-0.0,0.0
605,8,2022-03-08_13h57.40.042,11,49.0,-1.0,1.0,0.05,0,0.0,-1.0,1536.0,1.0,-0.0,0.0
606,8,2022-03-08_13h57.40.042,12,46.0,-4.0,4.0,0.05,0,0.0,-1.0,1115.4,1.0,-0.0,0.0
607,8,2022-03-08_13h57.40.042,13,52.0,2.0,2.0,0.05,0,0.0,1.0,909.9000000000001,1.0,-0.0,0.0
608,8,2022-03-08_13h57.40.042,14,47.0,-3.0,3.0,0.05,0,0.0,-1.0,1023.7,1.0,-0.0,0.0
609,8,2022-03-08_13h57.40.042,15,54.0,4.0,4.0,0.05,0,0.0,1.0,1114.6,1.0,-0.0,0.0
610,8,2022-03-08_13h57.40.042,16,48.0,-2.0,2.0,0.05,0,0.0,1.0,2073.7,0.0,-0.0,0.0
611,8,2022-03-08_13h57.40.042,17,46.0,-4.0,4.0,10.0,0,0.0,-1.0,1944.3,1.0,-0.0,0.0
612,8,2022-03-08_13h57.40.042,18,47.0,-3.0,3.0,10.0,0,0.0,-1.0,1492.8,1.0,-0.0,0.0
613,8,2022-03-08_13h57.40.042,19,53.0,3.0,3.0,10.0,0,0.0,1.0,1830.4,1.0,-0.0,0.0
614,8,2022-03-08_13h57.40.042,20,51.0,1.0,1.0,10.0,0,0.0,-1.0,897.3,0.0,-0.0,0.0
615,8,2022-03-08_13h57.40.042,21,54.0,4.0,4.0,10.0,0,0.0,1.0,1086.1,1.0,-0.0,0.0
616,8,2022-03-08_13h57.40.042,22,52.0,2.0,2.0,10.0,0,0.0,1.0,1304.9,1.0,-0.0,0.0
617,8,2022-03-08_13h57.40.042,23,49.0,-1.0,1.0,10.0,0,0.0,1.0,2557.8,0.0,-0.0,0.0
618,8,2022-03-08_13h57.40.042,24,48.0,-2.0,2.0,10.0,0,0.0,-1.0,1567.0,1.0,-0.0,0.0
619,8,2022-03-08_13h57.40.042,25,51.0,1.0,1.0,10.0,0,0.0,1.0,1179.3,1.0,-0.0,0.0
620,8,2022-03-08_13h57.40.042,26,54.0,4.0,4.0,10.0,0,0.0,1.0,1906.5,1.0,-0.0,0.0
621,8,2022-03-08_13h57.40.042,27,49.0,-1.0,1.0,10.0,0,0.0,-1.0,1110.6,1.0,-0.0,0.0
622,8,2022-03-08_13h57.40.042,28,47.0,-3.0,3.0,10.0,0,0.0,-1.0,1185.2,1.0,-0.0,0.0
623,8,2022-03-08_13h57.40.042,29,48.0,-2.0,2.0,10.0,0,0.0,1.0,1223.1,0.0,-0.0,0.0
624,8,2022-03-08_13h57.40.042,30,46.0,-4.0,4.0,10.0,0,0.0,-1.0,820.3000000000001,1.0,-0.0,0.0
625,8,2022-03-08_13h57.40.042,31,53.0,3.0,3.0,10.0,0,0.0,1.0,1022.0,1.0,-0.0,0.0
626,8,2022-03-08_13h57.40.042,32,52.0,2.0,2.0,10.0,0,0.0,1.0,2073.0,1.0,-0.0,0.0
627,8,2022-03-08_13h57.40.042,33,53.0,3.0,3.0,0.05,-1,5.0,1.0,1424.6,1.0,-0.0,5.0
628,8,2022-03-08_13h57.40.042,34,52.0,2.0,2.0,0.05,-1,5.0,-1.0,2511.4,0.0,-0.0,5.0
629,8,2022-03-08_13h57.40.042,35,48.0,-2.0,2.0,0.05,1,5.0,-1.0,2521.6,1.0,-0.0,5.0
630,8,2022-03-08_13h57.40.042,36,49.0,-1.0,1.0,0.05,1,5.0,-1.0,2674.0,1.0,-0.0,5.0
631,8,2022-03-08_13h57.40.042,37,54.0,4.0,4.0,0.05,-1,5.0,1.0,1242.6,1.0,-1.0,4.0
632,8,2022-03-08_13h57.40.042,38,46.0,-4.0,4.0,0.05,1,5.0,-1.0,989.9,1.0,-0.0,4.0
633,8,2022-03-08_13h57.40.042,39,47.0,-3.0,3.0,0.05,1,5.0,-1.0,2325.7,1.0,-0.0,4.0
634,8,2022-03-08_13h57.40.042,40,51.0,1.0,1.0,0.05,-1,5.0,1.0,1748.1,1.0,-0.0,4.0
635,8,2022-03-08_13h57.40.042,41,53.0,3.0,3.0,10.0,1,5.0,1.0,2090.2,1.0,-0.0,4.0
636,8,2022-03-08_13h57.40.042,42,52.0,2.0,2.0,10.0,1,5.0,1.0,2106.6,1.0,-0.0,4.0
637,8,2022-03-08_13h57.40.042,43,54.0,4.0,4.0,10.0,1,5.0,1.0,1322.3,1.0,-0.0,4.0
638,8,2022-03-08_13h57.40.042,44,46.0,-4.0,4.0,10.0,-1,5.0,-1.0,1340.3,1.0,-1.0,3.0
639,8,2022-03-08_13h57.40.042,45,47.0,-3.0,3.0,10.0,-1,5.0,-1.0,1495.0,1.0,-1.0,2.0
640,8,2022-03-08_13h57.40.042,46,49.0,-1.0,1.0,10.0,-1,5.0,-1.0,3539.1,1.0,-0.0,2.0
641,8,2022-03-08_13h57.40.042,47,51.0,1.0,1.0,10.0,1,5.0,1.0,698.4,1.0,-0.0,2.0
642,8,2022-03-08_13h57.40.042,48,48.0,-2.0,2.0,10.0,-1,5.0,-1.0,2991.3,1.0,-1.0,1.0
643,8,2022-03-08_13h57.40.042,49,47.0,-3.0,3.0,0.05,-1,5.0,-1.0,1240.1,1.0,-0.0,1.0
644,8,2022-03-08_13h57.40.042,50,51.0,1.0,1.0,0.05,1,5.0,1.0,1016.0,1.0,-0.0,1.0
645,8,2022-03-08_13h57.40.042,51,53.0,3.0,3.0,0.05,1,5.0,1.0,672.9999999999999,1.0,-0.0,1.0
646,8,2022-03-08_13h57.40.042,52,48.0,-2.0,2.0,0.05,-1,5.0,-1.0,1052.1,1.0,-0.0,1.0
647,8,2022-03-08_13h57.40.042,53,49.0,-1.0,1.0,0.05,-1,5.0,-1.0,1822.1,1.0,-0.0,1.0
648,8,2022-03-08_13h57.40.042,54,46.0,-4.0,4.0,0.05,-1,5.0,-1.0,1619.5,1.0,-1.0,0.0
649,8,2022-03-08_13h57.40.042,55,51.0,1.0,1.0,0.05,-1,5.0,1.0,2239.3,1.0,-0.0,5.0
650,8,2022-03-08_13h57.40.042,56,53.0,3.0,3.0,0.05,-1,5.0,1.0,812.1,1.0,-1.0,4.0
651,8,2022-03-08_13h57.40.042,57,48.0,-2.0,2.0,0.05,1,5.0,-1.0,1378.8,1.0,-0.0,4.0
652,8,2022-03-08_13h57.40.042,58,46.0,-4.0,4.0,0.05,1,5.0,-1.0,2936.9,1.0,-0.0,4.0
653,8,2022-03-08_13h57.40.042,59,49.0,-1.0,1.0,0.05,1,5.0,1.0,1932.0,0.0,-0.0,4.0
654,8,2022-03-08_13h57.40.042,60,54.0,4.0,4.0,0.05,-1,5.0,1.0,1298.9,1.0,-0.0,4.0
655,8,2022-03-08_13h57.40.042,61,52.0,2.0,2.0,0.05,-1,5.0,1.0,1013.0,1.0,-1.0,3.0
656,8,2022-03-08_13h57.40.042,62,47.0,-3.0,3.0,0.05,1,5.0,-1.0,2595.5,1.0,-0.0,3.0
657,8,2022-03-08_13h57.40.042,63,54.0,4.0,4.0,0.05,1,5.0,1.0,962.9,1.0,-0.0,3.0
658,8,2022-03-08_13h57.40.042,64,53.0,3.0,3.0,0.05,1,5.0,1.0,1179.8,1.0,-0.0,3.0
659,8,2022-03-08_13h57.40.042,65,48.0,-2.0,2.0,0.05,-1,5.0,1.0,1475.1,0.0,-0.0,3.0
660,8,2022-03-08_13h57.40.042,66,46.0,-4.0,4.0,0.05,-1,5.0,-1.0,3409.5,1.0,-0.0,3.0
661,8,2022-03-08_13h57.40.042,67,52.0,2.0,2.0,0.05,1,5.0,1.0,1425.7,1.0,-0.0,3.0
662,8,2022-03-08_13h57.40.042,68,47.0,-3.0,3.0,0.05,-1,5.0,-1.0,3624.2,1.0,-1.0,2.0
663,8,2022-03-08_13h57.40.042,69,49.0,-1.0,1.0,0.05,-1,5.0,1.0,2070.5,0.0,-1.0,1.0
664,8,2022-03-08_13h57.40.042,70,51.0,1.0,1.0,0.05,1,5.0,1.0,1829.7,1.0,-0.0,1.0
665,8,2022-03-08_13h57.40.042,71,51.0,1.0,1.0,10.0,-1,5.0,1.0,1716.7,1.0,-1.0,0.0
666,9,2022-03-07_15h38.00.551,1,49.0,-1.0,1.0,10.0,0,0.0,1.0,1921.3,0.0,-0.0,0.0
667,9,2022-03-07_15h38.00.551,2,51.0,1.0,1.0,10.0,0,0.0,1.0,1359.7,1.0,-0.0,0.0
668,9,2022-03-07_15h38.00.551,3,46.0,-4.0,4.0,10.0,0,0.0,-1.0,2019.6,1.0,-0.0,0.0
669,9,2022-03-07_15h38.00.551,4,54.0,4.0,4.0,10.0,0,0.0,1.0,1109.4,1.0,-0.0,0.0
670,9,2022-03-07_15h38.00.551,5,47.0,-3.0,3.0,10.0,0,0.0,1.0,1599.8,0.0,-0.0,0.0
671,9,2022-03-07_15h38.00.551,6,48.0,-2.0,2.0,10.0,0,0.0,1.0,2137.1,0.0,-0.0,0.0
672,9,2022-03-07_15h38.00.551,7,52.0,2.0,2.0,10.0,0,0.0,1.0,1536.1,1.0,-0.0,0.0
673,9,2022-03-07_15h38.00.551,8,53.0,3.0,3.0,10.0,0,0.0,1.0,1377.9,1.0,-0.0,0.0
674,9,2022-03-07_15h38.00.551,9,52.0,2.0,2.0,0.05,0,0.0,1.0,1587.4,1.0,-0.0,0.0
675,9,2022-03-07_15h38.00.551,10,48.0,-2.0,2.0,0.05,0,0.0,1.0,1951.3,0.0,-0.0,0.0
676,9,2022-03-07_15h38.00.551,11,51.0,1.0,1.0,0.05,0,0.0,-1.0,1675.8,0.0,-0.0,0.0
677,9,2022-03-07_15h38.00.551,12,46.0,-4.0,4.0,0.05,0,0.0,-1.0,1547.6,1.0,-0.0,0.0
678,9,2022-03-07_15h38.00.551,13,53.0,3.0,3.0,0.05,0,0.0,1.0,1941.3,1.0,-0.0,0.0
679,9,2022-03-07_15h38.00.551,14,47.0,-3.0,3.0,0.05,0,0.0,-1.0,1293.5,1.0,-0.0,0.0
680,9,2022-03-07_15h38.00.551,15,54.0,4.0,4.0,0.05,0,0.0,1.0,1745.2,1.0,-0.0,0.0
681,9,2022-03-07_15h38.00.551,16,49.0,-1.0,1.0,0.05,0,0.0,1.0,2433.5,0.0,-0.0,0.0
682,9,2022-03-07_15h38.00.551,17,52.0,2.0,2.0,10.0,0,0.0,-1.0,1779.3,0.0,-0.0,0.0
683,9,2022-03-07_15h38.00.551,18,46.0,-4.0,4.0,10.0,0,0.0,-1.0,1154.8,1.0,-0.0,0.0
684,9,2022-03-07_15h38.00.551,19,49.0,-1.0,1.0,10.0,0,0.0,1.0,2602.9,0.0,-0.0,0.0
685,9,2022-03-07_15h38.00.551,20,54.0,4.0,4.0,10.0,0,0.0,1.0,2040.5,1.0,-0.0,0.0
686,9,2022-03-07_15h38.00.551,21,47.0,-3.0,3.0,10.0,0,0.0,1.0,1891.6,0.0,-0.0,0.0
687,9,2022-03-07_15h38.00.551,22,53.0,3.0,3.0,10.0,0,0.0,1.0,1782.7,1.0,-0.0,0.0
688,9,2022-03-07_15h38.00.551,23,48.0,-2.0,2.0,10.0,0,0.0,-1.0,2263.8,1.0,-0.0,0.0
689,9,2022-03-07_15h38.00.551,24,51.0,1.0,1.0,10.0,0,0.0,1.0,2267.1,1.0,-0.0,0.0
690,9,2022-03-07_15h38.00.551,25,49.0,-1.0,1.0,0.05,0,0.0,-1.0,2352.0,1.0,-0.0,0.0
691,9,2022-03-07_15h38.00.551,26,54.0,4.0,4.0,0.05,0,0.0,1.0,1731.2,1.0,-0.0,0.0
692,9,2022-03-07_15h38.00.551,27,46.0,-4.0,4.0,0.05,0,0.0,1.0,1997.2,0.0,-0.0,0.0
693,9,2022-03-07_15h38.00.551,28,53.0,3.0,3.0,0.05,0,0.0,1.0,1200.0,1.0,-0.0,0.0
694,9,2022-03-07_15h38.00.551,29,47.0,-3.0,3.0,0.05,0,0.0,-1.0,1112.1,1.0,-0.0,0.0
695,9,2022-03-07_15h38.00.551,30,48.0,-2.0,2.0,0.05,0,0.0,-1.0,1806.5,1.0,-0.0,0.0
696,9,2022-03-07_15h38.00.551,31,52.0,2.0,2.0,0.05,0,0.0,1.0,2327.3,1.0,-0.0,0.0
697,9,2022-03-07_15h38.00.551,32,51.0,1.0,1.0,0.05,0,0.0,-1.0,1315.6,0.0,-0.0,0.0
698,9,2022-03-07_15h38.00.551,33,54.0,4.0,4.0,10.0,-1,5.0,1.0,2311.3,1.0,-0.0,5.0
699,9,2022-03-07_15h38.00.551,34,53.0,3.0,3.0,10.0,-1,5.0,1.0,3139.9,1.0,-0.0,5.0
700,9,2022-03-07_15h38.00.551,35,51.0,1.0,1.0,10.0,-1,5.0,1.0,2586.3,1.0,-0.0,5.0
701,9,2022-03-07_15h38.00.551,36,49.0,-1.0,1.0,10.0,1,5.0,1.0,1930.7,0.0,-0.0,5.0
702,9,2022-03-07_15h38.00.551,37,52.0,2.0,2.0,10.0,-1,5.0,1.0,2505.6,1.0,-1.0,4.0
703,9,2022-03-07_15h38.00.551,38,47.0,-3.0,3.0,10.0,1,5.0,1.0,2455.7,0.0,-0.0,4.0
704,9,2022-03-07_15h38.00.551,39,46.0,-4.0,4.0,10.0,1,5.0,1.0,3439.1,0.0,-0.0,4.0
705,9,2022-03-07_15h38.00.551,40,48.0,-2.0,2.0,10.0,1,5.0,1.0,2129.0,0.0,-0.0,4.0
706,9,2022-03-07_15h38.00.551,41,51.0,1.0,1.0,0.05,1,5.0,-1.0,4605.5,0.0,-0.0,4.0
707,9,2022-03-07_15h38.00.551,42,52.0,2.0,2.0,0.05,1,5.0,1.0,1762.4,1.0,-0.0,4.0
708,9,2022-03-07_15h38.00.551,43,48.0,-2.0,2.0,0.05,-1,5.0,1.0,2414.9,0.0,-0.0,4.0
709,9,2022-03-07_15h38.00.551,44,49.0,-1.0,1.0,0.05,-1,5.0,-1.0,1963.9,1.0,-0.0,4.0
710,9,2022-03-07_15h38.00.551,45,54.0,4.0,4.0,0.05,1,5.0,1.0,1840.0,1.0,-0.0,4.0
711,9,2022-03-07_15h38.00.551,46,47.0,-3.0,3.0,0.05,-1,5.0,-1.0,5004.2,1.0,-0.0,4.0
712,9,2022-03-07_15h38.00.551,47,53.0,3.0,3.0,0.05,1,5.0,1.0,3614.5,1.0,-0.0,4.0
713,9,2022-03-07_15h38.00.551,48,46.0,-4.0,4.0,0.05,-1,5.0,1.0,1776.8,0.0,-0.0,4.0
714,9,2022-03-07_15h38.00.551,49,52.0,2.0,2.0,10.0,1,5.0,1.0,1865.9,1.0,-0.0,4.0
715,9,2022-03-07_15h38.00.551,50,53.0,3.0,3.0,10.0,1,5.0,1.0,1724.6,1.0,-0.0,4.0
716,9,2022-03-07_15h38.00.551,51,54.0,4.0,4.0,10.0,1,5.0,1.0,1818.8,1.0,-0.0,4.0
717,9,2022-03-07_15h38.00.551,52,49.0,-1.0,1.0,10.0,-1,5.0,-1.0,1935.7,1.0,-0.0,4.0
718,9,2022-03-07_15h38.00.551,53,51.0,1.0,1.0,10.0,1,5.0,1.0,1763.4,1.0,-0.0,4.0
719,9,2022-03-07_15h38.00.551,54,47.0,-3.0,3.0,10.0,-1,5.0,1.0,2163.4,0.0,-0.0,4.0
720,9,2022-03-07_15h38.00.551,55,48.0,-2.0,2.0,10.0,-1,5.0,1.0,2002.4,0.0,-1.0,3.0
721,9,2022-03-07_15h38.00.551,56,46.0,-4.0,4.0,10.0,-1,5.0,-1.0,3052.0,1.0,-0.0,3.0
722,9,2022-03-07_15h38.00.551,57,47.0,-3.0,3.0,0.05,1,5.0,-1.0,2334.7,1.0,-0.0,3.0
723,9,2022-03-07_15h38.00.551,58,46.0,-4.0,4.0,0.05,1,5.0,-1.0,3471.8,1.0,-0.0,3.0
724,9,2022-03-07_15h38.00.551,59,51.0,1.0,1.0,0.05,-1,5.0,-1.0,7679.599999999999,0.0,-0.0,3.0
725,9,2022-03-07_15h38.00.551,60,53.0,3.0,3.0,0.05,-1,5.0,1.0,2857.1,1.0,-1.0,2.0
726,9,2022-03-07_15h38.00.551,61,54.0,4.0,4.0,0.05,-1,5.0,1.0,1222.0,1.0,-0.0,2.0
727,9,2022-03-07_15h38.00.551,62,49.0,-1.0,1.0,0.05,1,5.0,-1.0,2440.4,1.0,-0.0,2.0
728,9,2022-03-07_15h38.00.551,63,52.0,2.0,2.0,0.05,-1,5.0,1.0,1884.1,1.0,-0.0,2.0
729,9,2022-03-07_15h38.00.551,64,48.0,-2.0,2.0,0.05,1,5.0,-1.0,3260.6,1.0,-0.0,2.0
730,9,2022-03-07_15h38.00.551,65,48.0,-2.0,2.0,10.0,1,5.0,1.0,2843.3,0.0,-0.0,5.0
731,9,2022-03-07_15h38.00.551,66,47.0,-3.0,3.0,10.0,1,5.0,-1.0,3071.4,1.0,-0.0,5.0
732,9,2022-03-07_15h38.00.551,67,51.0,1.0,1.0,10.0,-1,5.0,1.0,2010.5,1.0,-0.0,5.0
733,9,2022-03-07_15h38.00.551,68,46.0,-4.0,4.0,10.0,1,5.0,1.0,2204.8,0.0,-0.0,5.0
734,9,2022-03-07_15h38.00.551,69,54.0,4.0,4.0,10.0,-1,5.0,1.0,2174.8,1.0,-0.0,5.0
735,9,2022-03-07_15h38.00.551,70,52.0,2.0,2.0,10.0,-1,5.0,1.0,2091.8,1.0,-0.0,5.0
736,9,2022-03-07_15h38.00.551,71,49.0,-1.0,1.0,10.0,1,5.0,1.0,1773.1,0.0,-0.0,5.0
737,9,2022-03-07_15h38.00.551,72,53.0,3.0,3.0,10.0,-1,5.0,1.0,1820.4,1.0,-0.0,5.0
738,9,2022-03-07_15h38.00.551,73,49.0,-1.0,1.0,0.05,1,5.0,-1.0,1806.5,1.0,-0.0,5.0
739,9,2022-03-07_15h38.00.551,74,54.0,4.0,4.0,0.05,-1,5.0,1.0,2934.5,1.0,-0.0,5.0
740,9,2022-03-07_15h38.00.551,75,53.0,3.0,3.0,0.05,-1,5.0,1.0,1253.4,1.0,-0.0,5.0
741,9,2022-03-07_15h38.00.551,76,51.0,1.0,1.0,0.05,-1,5.0,1.0,1722.2,1.0,-0.0,5.0
742,9,2022-03-07_15h38.00.551,77,48.0,-2.0,2.0,0.05,1,5.0,-1.0,5430.1,1.0,-0.0,5.0
743,9,2022-03-07_15h38.00.551,78,46.0,-4.0,4.0,0.05,1,5.0,1.0,1515.7,0.0,-0.0,5.0
744,9,2022-03-07_15h38.00.551,79,52.0,2.0,2.0,0.05,-1,5.0,-1.0,2588.4,0.0,-0.0,5.0
745,9,2022-03-07_15h38.00.551,80,47.0,-3.0,3.0,0.05,1,5.0,1.0,3949.1,0.0,-0.0,5.0
746,9,2022-03-07_15h38.00.551,81,54.0,4.0,4.0,10.0,1,5.0,1.0,1747.6,1.0,-0.0,5.0
747,9,2022-03-07_15h38.00.551,82,53.0,3.0,3.0,10.0,1,5.0,1.0,1930.6,1.0,-0.0,5.0
748,9,2022-03-07_15h38.00.551,83,48.0,-2.0,2.0,10.0,-1,5.0,-1.0,3389.5,1.0,-0.0,5.0
749,9,2022-03-07_15h38.00.551,84,52.0,2.0,2.0,10.0,1,5.0,1.0,1457.0,1.0,-0.0,5.0
750,9,2022-03-07_15h38.00.551,85,49.0,-1.0,1.0,10.0,-1,5.0,-1.0,2388.8,1.0,-0.0,5.0
751,9,2022-03-07_15h38.00.551,86,46.0,-4.0,4.0,10.0,-1,5.0,-1.0,4776.799999999999,1.0,-0.0,5.0
752,9,2022-03-07_15h38.00.551,87,47.0,-3.0,3.0,10.0,-1,5.0,1.0,2081.4,0.0,-0.0,5.0
753,9,2022-03-07_15h38.00.551,88,51.0,1.0,1.0,10.0,1,5.0,1.0,1857.0,1.0,-0.0,5.0
754,9,2022-03-07_15h38.00.551,89,48.0,-2.0,2.0,0.05,-1,5.0,1.0,1718.2,0.0,-0.0,5.0
755,9,2022-03-07_15h38.00.551,90,51.0,1.0,1.0,0.05,1,5.0,1.0,2545.1,1.0,-0.0,5.0
756,9,2022-03-07_15h38.00.551,91,49.0,-1.0,1.0,0.05,-1,5.0,1.0,2109.1,0.0,-0.0,5.0
757,9,2022-03-07_15h38.00.551,92,46.0,-4.0,4.0,0.05,-1,5.0,1.0,2377.8,0.0,-0.0,5.0
758,9,2022-03-07_15h38.00.551,93,54.0,4.0,4.0,0.05,1,5.0,1.0,1333.7,1.0,-0.0,5.0
759,9,2022-03-07_15h38.00.551,94,47.0,-3.0,3.0,0.05,-1,5.0,1.0,1991.0,0.0,-1.0,4.0
760,9,2022-03-07_15h38.00.551,95,52.0,2.0,2.0,0.05,1,5.0,1.0,2935.7,1.0,-0.0,4.0
761,9,2022-03-07_15h38.00.551,96,53.0,3.0,3.0,0.05,1,5.0,1.0,1934.2,1.0,-0.0,4.0
762,10,2022-03-08_09h31.08.600,1,53.0,3.0,3.0,10.0,1,5.0,1.0,1337.0,1.0,-0.0,5.0
763,10,2022-03-08_09h31.08.600,2,52.0,2.0,2.0,10.0,1,5.0,-1.0,3500.0,0.0,-0.0,5.0
764,10,2022-03-08_09h31.08.600,3,46.0,-4.0,4.0,10.0,-1,5.0,-1.0,3219.0,1.0,-0.0,5.0
765,10,2022-03-08_09h31.08.600,4,54.0,4.0,4.0,10.0,1,5.0,1.0,1675.0,1.0,-0.0,5.0
766,10,2022-03-08_09h31.08.600,5,49.0,-1.0,1.0,10.0,-1,5.0,-1.0,4708.0,1.0,-0.0,5.0
767,10,2022-03-08_09h31.08.600,6,51.0,1.0,1.0,10.0,1,5.0,-1.0,13398.0,0.0,-0.0,5.0
768,10,2022-03-08_09h31.08.600,7,48.0,-2.0,2.0,10.0,-1,5.0,-1.0,9065.0,1.0,-0.0,5.0
769,10,2022-03-08_09h31.08.600,8,47.0,-3.0,3.0,10.0,-1,5.0,1.0,3816.0,0.0,-0.0,5.0
770,10,2022-03-08_09h31.08.600,9,49.0,-1.0,1.0,10.0,1,5.0,-1.0,3383.0,1.0,-0.0,5.0
771,10,2022-03-08_09h31.08.600,10,51.0,1.0,1.0,10.0,-1,5.0,1.0,1148.0,1.0,-0.0,5.0
772,10,2022-03-08_09h31.08.600,11,47.0,-3.0,3.0,10.0,1,5.0,-1.0,1353.0,1.0,-0.0,5.0
773,10,2022-03-08_09h31.08.600,12,48.0,-2.0,2.0,10.0,1,5.0,-1.0,1656.0,1.0,-0.0,5.0
774,10,2022-03-08_09h31.08.600,13,52.0,2.0,2.0,10.0,-1,5.0,1.0,4914.0,1.0,-0.0,5.0
775,10,2022-03-08_09h31.08.600,14,54.0,4.0,4.0,10.0,-1,5.0,1.0,1798.0,1.0,-0.0,5.0
776,10,2022-03-08_09h31.08.600,15,53.0,3.0,3.0,10.0,-1,5.0,1.0,2431.0,1.0,-0.0,5.0
777,10,2022-03-08_09h31.08.600,16,46.0,-4.0,4.0,10.0,1,5.0,-1.0,1625.0,1.0,-0.0,5.0
778,10,2022-03-08_09h31.08.600,17,51.0,1.0,1.0,0.05,1,5.0,1.0,2610.0,1.0,-0.0,5.0
779,10,2022-03-08_09h31.08.600,18,54.0,4.0,4.0,0.05,1,5.0,1.0,1204.0,1.0,-0.0,5.0
780,10,2022-03-08_09h31.08.600,19,46.0,-4.0,4.0,0.05,-1,5.0,-1.0,3122.0,1.0,-1.0,4.0
781,10,2022-03-08_09h31.08.600,20,52.0,2.0,2.0,0.05,1,5.0,1.0,2581.0,1.0,-0.0,4.0
782,10,2022-03-08_09h31.08.600,21,53.0,3.0,3.0,0.05,1,5.0,1.0,2053.0,1.0,-0.0,4.0
783,10,2022-03-08_09h31.08.600,22,48.0,-2.0,2.0,0.05,-1,5.0,1.0,11531.0,0.0,-1.0,3.0
784,10,2022-03-08_09h31.08.600,23,49.0,-1.0,1.0,0.05,-1,5.0,-1.0,11715.0,1.0,-0.0,3.0
785,10,2022-03-08_09h31.08.600,24,47.0,-3.0,3.0,0.05,-1,5.0,-1.0,2605.0,1.0,-1.0,2.0
786,10,2022-03-08_09h31.08.600,25,49.0,-1.0,1.0,0.05,1,5.0,-1.0,1388.0,1.0,-0.0,2.0
787,10,2022-03-08_09h31.08.600,26,53.0,3.0,3.0,0.05,-1,5.0,1.0,2539.0,1.0,-0.0,2.0
788,10,2022-03-08_09h31.08.600,27,51.0,1.0,1.0,0.05,-1,5.0,1.0,3259.0,1.0,-1.0,1.0
789,10,2022-03-08_09h31.08.600,28,54.0,4.0,4.0,0.05,-1,5.0,1.0,3396.0,1.0,-0.0,1.0
790,10,2022-03-08_09h31.08.600,29,52.0,2.0,2.0,0.05,-1,5.0,1.0,3028.0,1.0,-0.0,1.0
791,10,2022-03-08_09h31.08.600,30,46.0,-4.0,4.0,0.05,1,5.0,-1.0,2044.0,1.0,-0.0,1.0
792,10,2022-03-08_09h31.08.600,31,48.0,-2.0,2.0,0.05,1,5.0,-1.0,1955.0,1.0,-0.0,1.0
793,10,2022-03-08_09h31.08.600,32,47.0,-3.0,3.0,0.05,1,5.0,-1.0,2393.0,1.0,-0.0,1.0
794,10,2022-03-08_09h31.08.600,33,53.0,3.0,3.0,10.0,-1,5.0,1.0,1927.0,1.0,-0.0,5.0
795,10,2022-03-08_09h31.08.600,34,49.0,-1.0,1.0,10.0,1,5.0,1.0,1467.0,0.0,-0.0,5.0
796,10,2022-03-08_09h31.08.600,35,52.0,2.0,2.0,10.0,-1,5.0,1.0,2019.0,1.0,-0.0,5.0
797,10,2022-03-08_09h31.08.600,36,47.0,-3.0,3.0,10.0,1,5.0,-1.0,6697.999999999999,1.0,-0.0,5.0
798,10,2022-03-08_09h31.08.600,37,51.0,1.0,1.0,10.0,-1,5.0,-1.0,4547.0,0.0,-0.0,5.0
799,10,2022-03-08_09h31.08.600,38,54.0,4.0,4.0,10.0,-1,5.0,1.0,1641.0,1.0,-0.0,5.0
800,10,2022-03-08_09h31.08.600,39,46.0,-4.0,4.0,10.0,1,5.0,-1.0,1535.0,1.0,-0.0,5.0
801,10,2022-03-08_09h31.08.600,40,48.0,-2.0,2.0,10.0,1,5.0,-1.0,2655.0,1.0,-0.0,5.0
802,10,2022-03-08_09h31.08.600,41,49.0,-1.0,1.0,0.05,-1,5.0,1.0,1484.0,0.0,-0.0,5.0
803,10,2022-03-08_09h31.08.600,42,53.0,3.0,3.0,0.05,1,5.0,-1.0,4012.0,0.0,-0.0,5.0
804,10,2022-03-08_09h31.08.600,43,48.0,-2.0,2.0,0.05,-1,5.0,-1.0,1529.0,1.0,-0.0,5.0
805,10,2022-03-08_09h31.08.600,44,47.0,-3.0,3.0,0.05,-1,5.0,-1.0,2426.0,1.0,-0.0,5.0
806,10,2022-03-08_09h31.08.600,45,51.0,1.0,1.0,0.05,1,5.0,-1.0,1488.0,0.0,-0.0,5.0
807,10,2022-03-08_09h31.08.600,46,46.0,-4.0,4.0,0.05,-1,5.0,-1.0,3127.0,1.0,-1.0,4.0
808,10,2022-03-08_09h31.08.600,47,54.0,4.0,4.0,0.05,1,5.0,1.0,1310.0,1.0,-0.0,4.0
809,10,2022-03-08_09h31.08.600,48,52.0,2.0,2.0,0.05,1,5.0,-1.0,2820.0,0.0,-0.0,4.0
810,10,2022-03-08_09h31.08.600,49,51.0,1.0,1.0,0.05,-1,5.0,-1.0,1785.0,0.0,-0.0,4.0
811,10,2022-03-08_09h31.08.600,50,53.0,3.0,3.0,0.05,-1,5.0,1.0,3559.0,1.0,-0.0,4.0
812,10,2022-03-08_09h31.08.600,51,52.0,2.0,2.0,0.05,-1,5.0,1.0,1480.0,1.0,-1.0,3.0
813,10,2022-03-08_09h31.08.600,52,47.0,-3.0,3.0,0.05,1,5.0,-1.0,1788.0,1.0,-0.0,3.0
814,10,2022-03-08_09h31.08.600,53,48.0,-2.0,2.0,0.05,1,5.0,-1.0,1776.0,1.0,-0.0,3.0
815,10,2022-03-08_09h31.08.600,54,49.0,-1.0,1.0,0.05,1,5.0,-1.0,2374.0,1.0,-0.0,3.0
816,10,2022-03-08_09h31.08.600,55,54.0,4.0,4.0,0.05,-1,5.0,1.0,7601.0,1.0,-0.0,3.0
817,10,2022-03-08_09h31.08.600,56,46.0,-4.0,4.0,0.05,1,5.0,-1.0,1232.0,1.0,-0.0,3.0
818,10,2022-03-08_09h31.08.600,57,46.0,-4.0,4.0,10.0,-1,5.0,-1.0,2361.0,1.0,-0.0,3.0
819,10,2022-03-08_09h31.08.600,58,53.0,3.0,3.0,10.0,1,5.0,-1.0,3818.0,0.0,-0.0,3.0
820,10,2022-03-08_09h31.08.600,59,48.0,-2.0,2.0,10.0,-1,5.0,-1.0,4375.0,1.0,-1.0,2.0
821,10,2022-03-08_09h31.08.600,60,49.0,-1.0,1.0,10.0,-1,5.0,-1.0,1197.0,1.0,-0.0,2.0
822,10,2022-03-08_09h31.08.600,61,54.0,4.0,4.0,10.0,1,5.0,1.0,1522.0,1.0,-0.0,2.0
823,10,2022-03-08_09h31.08.600,62,47.0,-3.0,3.0,10.0,-1,5.0,-1.0,1447.0,1.0,-1.0,1.0
824,10,2022-03-08_09h31.08.600,63,52.0,2.0,2.0,10.0,1,5.0,1.0,8087.999999999999,1.0,-0.0,1.0
825,10,2022-03-08_09h31.08.600,64,51.0,1.0,1.0,10.0,1,5.0,1.0,4780.0,1.0,-0.0,1.0
826,10,2022-03-08_09h31.08.600,65,49.0,-1.0,1.0,0.05,0,0.0,1.0,2849.0,0.0,-0.0,0.0
827,10,2022-03-08_09h31.08.600,66,46.0,-4.0,4.0,0.05,0,0.0,-1.0,1344.0,1.0,-0.0,0.0
828,10,2022-03-08_09h31.08.600,67,52.0,2.0,2.0,0.05,0,0.0,1.0,996.0,1.0,-0.0,0.0
829,10,2022-03-08_09h31.08.600,68,47.0,-3.0,3.0,0.05,0,0.0,-1.0,1406.0,1.0,-0.0,0.0
830,10,2022-03-08_09h31.08.600,69,51.0,1.0,1.0,0.05,0,0.0,1.0,1184.0,1.0,-0.0,0.0
831,10,2022-03-08_09h31.08.600,70,48.0,-2.0,2.0,0.05,0,0.0,1.0,3035.0,0.0,-0.0,0.0
832,10,2022-03-08_09h31.08.600,71,53.0,3.0,3.0,0.05,0,0.0,1.0,2722.0,1.0,-0.0,0.0
833,10,2022-03-08_09h31.08.600,72,54.0,4.0,4.0,0.05,0,0.0,1.0,902.0,1.0,-0.0,0.0
834,10,2022-03-08_09h31.08.600,73,47.0,-3.0,3.0,10.0,0,0.0,-1.0,2022.0,1.0,-0.0,0.0
835,10,2022-03-08_09h31.08.600,74,46.0,-4.0,4.0,10.0,0,0.0,-1.0,3116.0,1.0,-0.0,0.0
836,10,2022-03-08_09h31.08.600,75,53.0,3.0,3.0,10.0,0,0.0,1.0,2292.0,1.0,-0.0,0.0
837,10,2022-03-08_09h31.08.600,76,52.0,2.0,2.0,10.0,0,0.0,1.0,1378.0,1.0,-0.0,0.0
838,10,2022-03-08_09h31.08.600,77,48.0,-2.0,2.0,10.0,0,0.0,1.0,3974.0,0.0,-0.0,0.0
839,10,2022-03-08_09h31.08.600,78,51.0,1.0,1.0,10.0,0,0.0,1.0,1586.0,1.0,-0.0,0.0
840,10,2022-03-08_09h31.08.600,79,54.0,4.0,4.0,10.0,0,0.0,1.0,1313.0,1.0,-0.0,0.0
841,10,2022-03-08_09h31.08.600,80,49.0,-1.0,1.0,10.0,0,0.0,1.0,4414.0,0.0,-0.0,0.0
842,10,2022-03-08_09h31.08.600,81,52.0,2.0,2.0,10.0,0,0.0,1.0,2641.0,1.0,-0.0,0.0
843,10,2022-03-08_09h31.08.600,82,49.0,-1.0,1.0,10.0,0,0.0,1.0,1061.0,0.0,-0.0,0.0
844,10,2022-03-08_09h31.08.600,83,46.0,-4.0,4.0,10.0,0,0.0,-1.0,3370.0,1.0,-0.0,0.0
845,10,2022-03-08_09h31.08.600,84,54.0,4.0,4.0,10.0,0,0.0,1.0,739.0000000000001,1.0,-0.0,0.0
846,10,2022-03-08_09h31.08.600,85,51.0,1.0,1.0,10.0,0,0.0,1.0,2575.0,1.0,-0.0,0.0
847,10,2022-03-08_09h31.08.600,86,53.0,3.0,3.0,10.0,0,0.0,1.0,2913.0,1.0,-0.0,0.0
848,10,2022-03-08_09h31.08.600,87,47.0,-3.0,3.0,10.0,0,0.0,-1.0,2093.0,1.0,-0.0,0.0
849,10,2022-03-08_09h31.08.600,88,48.0,-2.0,2.0,10.0,0,0.0,-1.0,1268.0,1.0,-0.0,0.0
850,10,2022-03-08_09h31.08.600,89,54.0,4.0,4.0,0.05,0,0.0,1.0,1354.0,1.0,-0.0,0.0
851,10,2022-03-08_09h31.08.600,90,48.0,-2.0,2.0,0.05,0,0.0,-1.0,1225.0,1.0,-0.0,0.0
852,10,2022-03-08_09h31.08.600,91,51.0,1.0,1.0,0.05,0,0.0,1.0,968.0,1.0,-0.0,0.0
853,10,2022-03-08_09h31.08.600,92,49.0,-1.0,1.0,0.05,0,0.0,1.0,1557.0,0.0,-0.0,0.0
854,10,2022-03-08_09h31.08.600,93,52.0,2.0,2.0,0.05,0,0.0,1.0,1936.0,1.0,-0.0,0.0
855,10,2022-03-08_09h31.08.600,94,53.0,3.0,3.0,0.05,0,0.0,1.0,898.0,1.0,-0.0,0.0
856,10,2022-03-08_09h31.08.600,95,46.0,-4.0,4.0,0.05,0,0.0,-1.0,1990.0,1.0,-0.0,0.0
857,10,2022-03-08_09h31.08.600,96,47.0,-3.0,3.0,0.05,0,0.0,-1.0,2268.0,1.0,-0.0,0.0
858,11,2022-03-07_15h49.40.702,1,48.0,-2.0,2.0,10.0,0,0.0,1.0,1794.0,0.0,-0.0,0.0
859,11,2022-03-07_15h49.40.702,2,47.0,-3.0,3.0,10.0,0,0.0,1.0,1054.0,0.0,-0.0,0.0
860,11,2022-03-07_15h49.40.702,3,51.0,1.0,1.0,10.0,0,0.0,1.0,677.0,1.0,-0.0,0.0
861,11,2022-03-07_15h49.40.702,4,54.0,4.0,4.0,10.0,0,0.0,-1.0,748.0,0.0,-0.0,0.0
862,11,2022-03-07_15h49.40.702,5,53.0,3.0,3.0,10.0,0,0.0,1.0,1757.0,1.0,-0.0,0.0
863,11,2022-03-07_15h49.40.702,6,46.0,-4.0,4.0,10.0,0,0.0,-1.0,1192.0,1.0,-0.0,0.0
864,11,2022-03-07_15h49.40.702,7,52.0,2.0,2.0,10.0,0,0.0,1.0,842.0000000000001,1.0,-0.0,0.0
865,11,2022-03-07_15h49.40.702,8,49.0,-1.0,1.0,10.0,0,0.0,-1.0,1740.0,1.0,-0.0,0.0
866,11,2022-03-07_15h49.40.702,9,48.0,-2.0,2.0,0.05,0,0.0,1.0,1280.0,0.0,-0.0,0.0
867,11,2022-03-07_15h49.40.702,10,51.0,1.0,1.0,0.05,0,0.0,1.0,819.0000000000001,1.0,-0.0,0.0
868,11,2022-03-07_15h49.40.702,11,53.0,3.0,3.0,0.05,0,0.0,1.0,728.0,1.0,-0.0,0.0
869,11,2022-03-07_15h49.40.702,12,47.0,-3.0,3.0,0.05,0,0.0,1.0,1006.0,0.0,-0.0,0.0
870,11,2022-03-07_15h49.40.702,13,46.0,-4.0,4.0,0.05,0,0.0,1.0,875.9999999999999,0.0,-0.0,0.0
871,11,2022-03-07_15h49.40.702,14,54.0,4.0,4.0,0.05,0,0.0,1.0,689.0,1.0,-0.0,0.0
872,11,2022-03-07_15h49.40.702,15,49.0,-1.0,1.0,0.05,0,0.0,1.0,944.0000000000001,0.0,-0.0,0.0
873,11,2022-03-07_15h49.40.702,16,52.0,2.0,2.0,0.05,0,0.0,1.0,1511.0,1.0,-0.0,0.0
874,11,2022-03-07_15h49.40.702,17,49.0,-1.0,1.0,0.05,0,0.0,1.0,1834.0,0.0,-0.0,0.0
875,11,2022-03-07_15h49.40.702,18,46.0,-4.0,4.0,0.05,0,0.0,-1.0,1320.0,1.0,-0.0,0.0
876,11,2022-03-07_15h49.40.702,19,54.0,4.0,4.0,0.05,0,0.0,1.0,1640.0,1.0,-0.0,0.0
877,11,2022-03-07_15h49.40.702,20,52.0,2.0,2.0,0.05,0,0.0,1.0,1024.0,1.0,-0.0,0.0
878,11,2022-03-07_15h49.40.702,21,51.0,1.0,1.0,0.05,0,0.0,-1.0,1295.0,0.0,-0.0,0.0
879,11,2022-03-07_15h49.40.702,22,47.0,-3.0,3.0,0.05,0,0.0,-1.0,1673.0,1.0,-0.0,0.0
880,11,2022-03-07_15h49.40.702,23,53.0,3.0,3.0,0.05,0,0.0,1.0,959.0000000000001,1.0,-0.0,0.0
881,11,2022-03-07_15h49.40.702,24,48.0,-2.0,2.0,0.05,0,0.0,-1.0,1940.0,1.0,-0.0,0.0
882,11,2022-03-07_15h49.40.702,25,51.0,1.0,1.0,10.0,0,0.0,1.0,1457.0,1.0,-0.0,0.0
883,11,2022-03-07_15h49.40.702,26,53.0,3.0,3.0,10.0,0,0.0,1.0,971.0,1.0,-0.0,0.0
884,11,2022-03-07_15h49.40.702,27,48.0,-2.0,2.0,10.0,0,0.0,-1.0,1089.0,1.0,-0.0,0.0
885,11,2022-03-07_15h49.40.702,28,46.0,-4.0,4.0,10.0,0,0.0,-1.0,862.0,1.0,-0.0,0.0
886,11,2022-03-07_15h49.40.702,29,54.0,4.0,4.0,10.0,0,0.0,1.0,894.0,1.0,-0.0,0.0
887,11,2022-03-07_15h49.40.702,30,52.0,2.0,2.0,10.0,0,0.0,1.0,909.0,1.0,-0.0,0.0
888,11,2022-03-07_15h49.40.702,31,47.0,-3.0,3.0,10.0,0,0.0,1.0,1109.0,0.0,-0.0,0.0
889,11,2022-03-07_15h49.40.702,32,49.0,-1.0,1.0,10.0,0,0.0,1.0,1621.0,0.0,-0.0,0.0
890,11,2022-03-07_15h49.40.702,33,51.0,1.0,1.0,10.0,-1,5.0,1.0,999.0000000000001,1.0,-1.0,4.0
891,11,2022-03-07_15h49.40.702,34,53.0,3.0,3.0,10.0,-1,5.0,1.0,920.9999999999999,1.0,-1.0,3.0
892,11,2022-03-07_15h49.40.702,35,47.0,-3.0,3.0,10.0,1,5.0,1.0,1537.0,0.0,-0.0,3.0
893,11,2022-03-07_15h49.40.702,36,52.0,2.0,2.0,10.0,-1,5.0,1.0,1161.0,1.0,-1.0,2.0
894,11,2022-03-07_15h49.40.702,37,54.0,4.0,4.0,10.0,-1,5.0,1.0,785.0,1.0,-0.0,2.0
895,11,2022-03-07_15h49.40.702,38,48.0,-2.0,2.0,10.0,1,5.0,1.0,1411.0,0.0,-0.0,2.0
896,11,2022-03-07_15h49.40.702,39,46.0,-4.0,4.0,10.0,1,5.0,-1.0,1178.0,1.0,-0.0,2.0
897,11,2022-03-07_15h49.40.702,40,49.0,-1.0,1.0,10.0,1,5.0,1.0,1367.0,0.0,-0.0,2.0
898,11,2022-03-07_15h49.40.702,41,54.0,4.0,4.0,0.05,1,5.0,1.0,1126.0,1.0,-0.0,2.0
899,11,2022-03-07_15h49.40.702,42,49.0,-1.0,1.0,0.05,-1,5.0,1.0,1540.0,0.0,-0.0,2.0
900,11,2022-03-07_15h49.40.702,43,52.0,2.0,2.0,0.05,1,5.0,1.0,1519.0,1.0,-0.0,2.0
901,11,2022-03-07_15h49.40.702,44,51.0,1.0,1.0,0.05,1,5.0,1.0,844.0000000000001,1.0,-0.0,2.0
902,11,2022-03-07_15h49.40.702,45,47.0,-3.0,3.0,0.05,-1,5.0,1.0,920.9999999999999,0.0,-1.0,1.0
903,11,2022-03-07_15h49.40.702,46,46.0,-4.0,4.0,0.05,-1,5.0,-1.0,1160.0,1.0,-1.0,0.0
904,11,2022-03-07_15h49.40.702,47,51.0,1.0,1.0,10.0,-1,5.0,1.0,879.0,1.0,-0.0,5.0
905,11,2022-03-07_15h49.40.702,48,49.0,-1.0,1.0,10.0,1,5.0,1.0,2248.0,0.0,-0.0,5.0
906,11,2022-03-07_15h49.40.702,49,48.0,-2.0,2.0,10.0,1,5.0,1.0,1876.0,0.0,-0.0,5.0
907,11,2022-03-07_15h49.40.702,50,47.0,-3.0,3.0,10.0,1,5.0,-1.0,2001.0,1.0,-0.0,5.0
908,11,2022-03-07_15h49.40.702,51,53.0,3.0,3.0,10.0,-1,5.0,1.0,861.0,1.0,-0.0,5.0
909,11,2022-03-07_15h49.40.702,52,54.0,4.0,4.0,10.0,-1,5.0,1.0,1494.0,1.0,-0.0,5.0
910,11,2022-03-07_15h49.40.702,53,46.0,-4.0,4.0,10.0,1,5.0,-1.0,1100.0,1.0,-0.0,5.0
911,11,2022-03-07_15h49.40.702,54,52.0,2.0,2.0,10.0,-1,5.0,1.0,2107.0,1.0,-0.0,5.0
912,11,2022-03-07_15h49.40.702,55,49.0,-1.0,1.0,0.05,1,5.0,1.0,991.0,0.0,-0.0,5.0
913,11,2022-03-07_15h49.40.702,56,46.0,-4.0,4.0,0.05,1,5.0,1.0,1452.0,0.0,-0.0,5.0
914,11,2022-03-07_15h49.40.702,57,54.0,4.0,4.0,0.05,-1,5.0,1.0,964.0000000000001,1.0,-0.0,5.0
915,11,2022-03-07_15h49.40.702,58,48.0,-2.0,2.0,0.05,1,5.0,1.0,940.0,0.0,-0.0,5.0
916,11,2022-03-07_15h49.40.702,59,52.0,2.0,2.0,0.05,-1,5.0,1.0,992.0,1.0,-1.0,4.0
917,11,2022-03-07_15h49.40.702,60,47.0,-3.0,3.0,0.05,1,5.0,-1.0,1580.0,1.0,-0.0,4.0
918,11,2022-03-07_15h49.40.702,61,51.0,1.0,1.0,0.05,-1,5.0,1.0,903.0,1.0,-0.0,4.0
919,11,2022-03-07_15h49.40.702,62,53.0,3.0,3.0,0.05,-1,5.0,1.0,773.0,1.0,-1.0,3.0
920,11,2022-03-07_15h49.40.702,63,54.0,4.0,4.0,0.05,1,5.0,1.0,951.0,1.0,-0.0,3.0
921,11,2022-03-07_15h49.40.702,64,52.0,2.0,2.0,0.05,1,5.0,1.0,837.0000000000001,1.0,-0.0,3.0
922,11,2022-03-07_15h49.40.702,65,46.0,-4.0,4.0,0.05,-1,5.0,-1.0,1828.0,1.0,-0.0,3.0
923,11,2022-03-07_15h49.40.702,66,48.0,-2.0,2.0,0.05,-1,5.0,1.0,1136.0,0.0,-0.0,3.0
924,11,2022-03-07_15h49.40.702,67,49.0,-1.0,1.0,0.05,-1,5.0,1.0,927.0,0.0,-0.0,3.0
925,11,2022-03-07_15h49.40.702,68,51.0,1.0,1.0,0.05,1,5.0,1.0,754.0,1.0,-0.0,3.0
926,11,2022-03-07_15h49.40.702,69,47.0,-3.0,3.0,0.05,-1,5.0,1.0,1055.0,0.0,-0.0,3.0
927,11,2022-03-07_15h49.40.702,70,53.0,3.0,3.0,0.05,1,5.0,1.0,682.9999999999999,1.0,-0.0,3.0
928,11,2022-03-07_15h49.40.702,71,53.0,3.0,3.0,10.0,1,5.0,1.0,745.0,1.0,-0.0,3.0
929,11,2022-03-07_15h49.40.702,72,54.0,4.0,4.0,10.0,1,5.0,1.0,1215.0,1.0,-0.0,3.0
930,11,2022-03-07_15h49.40.702,73,49.0,-1.0,1.0,10.0,-1,5.0,1.0,1386.0,0.0,-0.0,3.0
931,11,2022-03-07_15h49.40.702,74,48.0,-2.0,2.0,10.0,-1,5.0,1.0,1447.0,0.0,-0.0,3.0
932,11,2022-03-07_15h49.40.702,75,51.0,1.0,1.0,10.0,1,5.0,1.0,1301.0,1.0,-0.0,3.0
933,11,2022-03-07_15h49.40.702,76,47.0,-3.0,3.0,10.0,-1,5.0,1.0,2488.0,0.0,-1.0,2.0
934,11,2022-03-07_15h49.40.702,77,52.0,2.0,2.0,10.0,1,5.0,-1.0,6497.999999999999,0.0,-0.0,2.0
935,11,2022-03-07_15h49.40.702,78,46.0,-4.0,4.0,10.0,-1,5.0,-1.0,1810.0,1.0,-1.0,1.0
936,12,2022-03-08_09h25.55.419,1,49.0,-1.0,1.0,0.05,-1,5.0,1.0,9260.8,0.0,-0.0,5.0
937,12,2022-03-08_09h25.55.419,2,52.0,2.0,2.0,0.05,1,5.0,1.0,2928.6,1.0,-0.0,5.0
938,12,2022-03-08_09h25.55.419,3,53.0,3.0,3.0,0.05,1,5.0,1.0,1092.7,1.0,-0.0,5.0
939,12,2022-03-08_09h25.55.419,4,54.0,4.0,4.0,0.05,1,5.0,1.0,1012.5,1.0,-0.0,5.0
940,12,2022-03-08_09h25.55.419,5,46.0,-4.0,4.0,0.05,-1,5.0,-1.0,1355.1,1.0,-1.0,4.0
941,12,2022-03-08_09h25.55.419,6,51.0,1.0,1.0,0.05,1,5.0,1.0,1213.9,1.0,-0.0,4.0
942,12,2022-03-08_09h25.55.419,7,48.0,-2.0,2.0,0.05,-1,5.0,1.0,6515.799999999999,0.0,-0.0,4.0
943,12,2022-03-08_09h25.55.419,8,47.0,-3.0,3.0,0.05,-1,5.0,-1.0,9103.9,1.0,-1.0,3.0
944,12,2022-03-08_09h25.55.419,9,52.0,2.0,2.0,10.0,-1,5.0,1.0,3859.8,1.0,-1.0,2.0
945,12,2022-03-08_09h25.55.419,10,51.0,1.0,1.0,10.0,-1,5.0,1.0,5520.6,1.0,-0.0,2.0
946,12,2022-03-08_09h25.55.419,11,46.0,-4.0,4.0,10.0,1,5.0,1.0,1249.6,0.0,-0.0,2.0
947,12,2022-03-08_09h25.55.419,12,48.0,-2.0,2.0,10.0,1,5.0,1.0,19588.9,0.0,-0.0,2.0
948,12,2022-03-08_09h25.55.419,13,47.0,-3.0,3.0,10.0,1,5.0,1.0,2234.5,0.0,-0.0,2.0
949,12,2022-03-08_09h25.55.419,14,49.0,-1.0,1.0,10.0,1,5.0,1.0,2303.1,0.0,-0.0,2.0
950,12,2022-03-08_09h25.55.419,15,54.0,4.0,4.0,10.0,-1,5.0,1.0,1454.6,1.0,-0.0,2.0
951,12,2022-03-08_09h25.55.419,16,53.0,3.0,3.0,10.0,-1,5.0,1.0,1546.0,1.0,-0.0,2.0
952,12,2022-03-08_09h25.55.419,17,48.0,-2.0,2.0,0.05,1,5.0,-1.0,1940.5,1.0,-0.0,2.0
953,12,2022-03-08_09h25.55.419,18,47.0,-3.0,3.0,0.05,1,5.0,-1.0,1406.9,1.0,-0.0,2.0
954,12,2022-03-08_09h25.55.419,19,46.0,-4.0,4.0,0.05,1,5.0,-1.0,813.5,1.0,-0.0,2.0
955,12,2022-03-08_09h25.55.419,20,49.0,-1.0,1.0,0.05,1,5.0,-1.0,1166.3,1.0,-0.0,2.0
956,12,2022-03-08_09h25.55.419,21,51.0,1.0,1.0,0.05,-1,5.0,1.0,1434.7,1.0,-1.0,1.0
957,12,2022-03-08_09h25.55.419,22,54.0,4.0,4.0,0.05,-1,5.0,1.0,1258.4,1.0,-0.0,1.0
958,12,2022-03-08_09h25.55.419,23,53.0,3.0,3.0,0.05,-1,5.0,1.0,3356.3,1.0,-0.0,1.0
959,12,2022-03-08_09h25.55.419,24,52.0,2.0,2.0,0.05,-1,5.0,1.0,1957.8,1.0,-1.0,0.0
960,12,2022-03-08_09h25.55.419,25,53.0,3.0,3.0,10.0,-1,5.0,1.0,1493.3,1.0,-0.0,5.0
961,12,2022-03-08_09h25.55.419,26,47.0,-3.0,3.0,10.0,1,5.0,-1.0,1938.3,1.0,-0.0,5.0
962,12,2022-03-08_09h25.55.419,27,54.0,4.0,4.0,10.0,-1,5.0,1.0,1909.4,1.0,-1.0,4.0
963,12,2022-03-08_09h25.55.419,28,51.0,1.0,1.0,10.0,-1,5.0,-1.0,1584.4,0.0,-1.0,3.0
964,12,2022-03-08_09h25.55.419,29,46.0,-4.0,4.0,10.0,1,5.0,-1.0,1562.1,1.0,-0.0,3.0
965,12,2022-03-08_09h25.55.419,30,52.0,2.0,2.0,10.0,-1,5.0,1.0,1190.8,1.0,-0.0,3.0
966,12,2022-03-08_09h25.55.419,31,48.0,-2.0,2.0,10.0,1,5.0,-1.0,1574.7,1.0,-0.0,3.0
967,12,2022-03-08_09h25.55.419,32,49.0,-1.0,1.0,10.0,1,5.0,1.0,1559.9,0.0,-0.0,3.0
968,12,2022-03-08_09h25.55.419,33,52.0,2.0,2.0,0.05,-1,5.0,1.0,1532.7,1.0,-1.0,2.0
969,12,2022-03-08_09h25.55.419,34,53.0,3.0,3.0,0.05,-1,5.0,1.0,1533.4,1.0,-0.0,2.0
970,12,2022-03-08_09h25.55.419,35,46.0,-4.0,4.0,0.05,1,5.0,-1.0,2042.2,1.0,-0.0,2.0
971,12,2022-03-08_09h25.55.419,36,48.0,-2.0,2.0,0.05,1,5.0,-1.0,993.5,1.0,-0.0,2.0
972,12,2022-03-08_09h25.55.419,37,51.0,1.0,1.0,0.05,-1,5.0,1.0,1025.5,1.0,-0.0,2.0
973,12,2022-03-08_09h25.55.419,38,54.0,4.0,4.0,0.05,-1,5.0,1.0,1508.0,1.0,-0.0,2.0
974,12,2022-03-08_09h25.55.419,39,47.0,-3.0,3.0,0.05,1,5.0,-1.0,820.0,1.0,-0.0,2.0
975,12,2022-03-08_09h25.55.419,40,49.0,-1.0,1.0,0.05,1,5.0,-1.0,912.9000000000001,1.0,-0.0,2.0
976,12,2022-03-08_09h25.55.419,41,52.0,2.0,2.0,10.0,1,5.0,1.0,1581.5,1.0,-0.0,2.0
977,12,2022-03-08_09h25.55.419,42,47.0,-3.0,3.0,10.0,-1,5.0,-1.0,1249.6,1.0,-1.0,1.0
978,12,2022-03-08_09h25.55.419,43,54.0,4.0,4.0,10.0,1,5.0,1.0,1139.3,1.0,-0.0,1.0
979,12,2022-03-08_09h25.55.419,44,48.0,-2.0,2.0,10.0,-1,5.0,-1.0,1858.5,1.0,-0.0,1.0
980,12,2022-03-08_09h25.55.419,45,53.0,3.0,3.0,10.0,1,5.0,1.0,1002.2,1.0,-0.0,1.0
981,12,2022-03-08_09h25.55.419,46,51.0,1.0,1.0,10.0,1,5.0,1.0,1709.0,1.0,-0.0,1.0
982,12,2022-03-08_09h25.55.419,47,49.0,-1.0,1.0,10.0,-1,5.0,1.0,1310.0,0.0,-0.0,1.0
983,12,2022-03-08_09h25.55.419,48,46.0,-4.0,4.0,10.0,-1,5.0,1.0,1077.3,0.0,-1.0,0.0
984,12,2022-03-08_09h25.55.419,49,51.0,1.0,1.0,10.0,0,0.0,1.0,1142.7,1.0,-0.0,0.0
985,12,2022-03-08_09h25.55.419,50,49.0,-1.0,1.0,10.0,0,0.0,1.0,1386.0,0.0,-0.0,0.0
986,12,2022-03-08_09h25.55.419,51,52.0,2.0,2.0,10.0,0,0.0,1.0,1002.4,1.0,-0.0,0.0
987,12,2022-03-08_09h25.55.419,52,53.0,3.0,3.0,10.0,0,0.0,1.0,2115.1,1.0,-0.0,0.0
988,12,2022-03-08_09h25.55.419,53,46.0,-4.0,4.0,10.0,0,0.0,-1.0,1345.6,1.0,-0.0,0.0
989,12,2022-03-08_09h25.55.419,54,48.0,-2.0,2.0,10.0,0,0.0,-1.0,858.7,1.0,-0.0,0.0
990,12,2022-03-08_09h25.55.419,55,54.0,4.0,4.0,10.0,0,0.0,-1.0,1029.8,0.0,-0.0,0.0
991,12,2022-03-08_09h25.55.419,56,47.0,-3.0,3.0,10.0,0,0.0,1.0,1726.3,0.0,-0.0,0.0
992,12,2022-03-08_09h25.55.419,57,46.0,-4.0,4.0,10.0,0,0.0,-1.0,1149.8,1.0,-0.0,0.0
993,12,2022-03-08_09h25.55.419,58,51.0,1.0,1.0,10.0,0,0.0,-1.0,991.6,0.0,-0.0,0.0
994,12,2022-03-08_09h25.55.419,59,52.0,2.0,2.0,10.0,0,0.0,1.0,866.1,1.0,-0.0,0.0
995,12,2022-03-08_09h25.55.419,60,49.0,-1.0,1.0,10.0,0,0.0,-1.0,900.5,1.0,-0.0,0.0
996,12,2022-03-08_09h25.55.419,61,54.0,4.0,4.0,10.0,0,0.0,1.0,775.4,1.0,-0.0,0.0
997,12,2022-03-08_09h25.55.419,62,47.0,-3.0,3.0,10.0,0,0.0,-1.0,2775.0,1.0,-0.0,0.0
998,12,2022-03-08_09h25.55.419,63,48.0,-2.0,2.0,10.0,0,0.0,1.0,892.9,0.0,-0.0,0.0
999,12,2022-03-08_09h25.55.419,64,53.0,3.0,3.0,10.0,0,0.0,1.0,1944.1,1.0,-0.0,0.0
1000,12,2022-03-08_09h25.55.419,65,48.0,-2.0,2.0,0.05,0,0.0,1.0,1133.4,0.0,-0.0,0.0
1001,12,2022-03-08_09h25.55.419,66,49.0,-1.0,1.0,0.05,0,0.0,1.0,800.6,0.0,-0.0,0.0
1002,12,2022-03-08_09h25.55.419,67,53.0,3.0,3.0,0.05,0,0.0,1.0,568.9,1.0,-0.0,0.0
1003,12,2022-03-08_09h25.55.419,68,52.0,2.0,2.0,0.05,0,0.0,1.0,1059.0,1.0,-0.0,0.0
1004,12,2022-03-08_09h25.55.419,69,46.0,-4.0,4.0,0.05,0,0.0,-1.0,863.3,1.0,-0.0,0.0
1005,12,2022-03-08_09h25.55.419,70,51.0,1.0,1.0,0.05,0,0.0,1.0,801.1,1.0,-0.0,0.0
1006,12,2022-03-08_09h25.55.419,71,54.0,4.0,4.0,0.05,0,0.0,1.0,1079.1,1.0,-0.0,0.0
1007,12,2022-03-08_09h25.55.419,72,47.0,-3.0,3.0,0.05,0,0.0,-1.0,761.5,1.0,-0.0,0.0
1008,12,2022-03-08_09h25.55.419,73,47.0,-3.0,3.0,0.05,0,0.0,-1.0,969.9,1.0,-0.0,0.0
1009,12,2022-03-08_09h25.55.419,74,51.0,1.0,1.0,0.05,0,0.0,1.0,932.3000000000001,1.0,-0.0,0.0
1010,12,2022-03-08_09h25.55.419,75,48.0,-2.0,2.0,0.05,0,0.0,-1.0,1094.4,1.0,-0.0,0.0
1011,12,2022-03-08_09h25.55.419,76,53.0,3.0,3.0,0.05,0,0.0,1.0,868.4,1.0,-0.0,0.0
1012,12,2022-03-08_09h25.55.419,77,46.0,-4.0,4.0,0.05,0,0.0,-1.0,798.8,1.0,-0.0,0.0
1013,12,2022-03-08_09h25.55.419,78,52.0,2.0,2.0,0.05,0,0.0,1.0,1393.4,1.0,-0.0,0.0
1014,12,2022-03-08_09h25.55.419,79,49.0,-1.0,1.0,0.05,0,0.0,1.0,899.5999999999999,0.0,-0.0,0.0
1015,12,2022-03-08_09h25.55.419,80,54.0,4.0,4.0,0.05,0,0.0,1.0,952.7,1.0,-0.0,0.0
1016,13,2022-03-07_15h31.37.670,1,54.0,4.0,4.0,10.0,1,5.0,1.0,914.6999999999999,1.0,-0.0,5.0
1017,13,2022-03-07_15h31.37.670,2,51.0,1.0,1.0,10.0,1,5.0,1.0,1461.0,1.0,-0.0,5.0
1018,13,2022-03-07_15h31.37.670,3,53.0,3.0,3.0,10.0,1,5.0,1.0,1038.3,1.0,-0.0,5.0
1019,13,2022-03-07_15h31.37.670,4,49.0,-1.0,1.0,10.0,-1,5.0,1.0,2467.2,0.0,-0.0,5.0
1020,13,2022-03-07_15h31.37.670,5,52.0,2.0,2.0,10.0,1,5.0,1.0,1366.9,1.0,-0.0,5.0
1021,13,2022-03-07_15h31.37.670,6,46.0,-4.0,4.0,10.0,-1,5.0,-1.0,1160.0,1.0,-0.0,5.0
1022,13,2022-03-07_15h31.37.670,7,48.0,-2.0,2.0,10.0,-1,5.0,1.0,1177.2,0.0,-0.0,5.0
1023,13,2022-03-07_15h31.37.670,8,47.0,-3.0,3.0,10.0,-1,5.0,1.0,2427.4,0.0,-0.0,5.0
1024,13,2022-03-07_15h31.37.670,9,54.0,4.0,4.0,0.05,1,5.0,1.0,1304.4,1.0,-0.0,5.0
1025,13,2022-03-07_15h31.37.670,10,49.0,-1.0,1.0,0.05,-1,5.0,1.0,992.1,0.0,-0.0,5.0
1026,13,2022-03-07_15h31.37.670,11,48.0,-2.0,2.0,0.05,-1,5.0,-1.0,1506.7,1.0,-1.0,4.0
1027,13,2022-03-07_15h31.37.670,12,47.0,-3.0,3.0,0.05,-1,5.0,1.0,1512.2,0.0,-0.0,4.0
1028,13,2022-03-07_15h31.37.670,13,51.0,1.0,1.0,0.05,1,5.0,1.0,1240.8,1.0,-0.0,4.0
1029,13,2022-03-07_15h31.37.670,14,46.0,-4.0,4.0,0.05,-1,5.0,-1.0,956.8,1.0,-0.0,4.0
1030,13,2022-03-07_15h31.37.670,15,53.0,3.0,3.0,0.05,1,5.0,1.0,3193.3,1.0,-0.0,4.0
1031,13,2022-03-07_15h31.37.670,16,52.0,2.0,2.0,0.05,1,5.0,1.0,890.1,1.0,-0.0,4.0
1032,13,2022-03-07_15h31.37.670,17,48.0,-2.0,2.0,10.0,1,5.0,-1.0,1059.7,1.0,-0.0,4.0
1033,13,2022-03-07_15h31.37.670,18,52.0,2.0,2.0,10.0,-1,5.0,1.0,946.5,1.0,-0.0,4.0
1034,13,2022-03-07_15h31.37.670,19,54.0,4.0,4.0,10.0,-1,5.0,1.0,1189.8,1.0,-0.0,4.0
1035,13,2022-03-07_15h31.37.670,20,49.0,-1.0,1.0,10.0,1,5.0,-1.0,1345.7,1.0,-0.0,4.0
1036,13,2022-03-07_15h31.37.670,21,53.0,3.0,3.0,10.0,-1,5.0,-1.0,829.7,0.0,-0.0,4.0
1037,13,2022-03-07_15h31.37.670,22,46.0,-4.0,4.0,10.0,1,5.0,-1.0,1062.7,1.0,-0.0,4.0
1038,13,2022-03-07_15h31.37.670,23,47.0,-3.0,3.0,10.0,1,5.0,1.0,966.7,0.0,-0.0,4.0
1039,13,2022-03-07_15h31.37.670,24,51.0,1.0,1.0,10.0,-1,5.0,1.0,1261.6,1.0,-0.0,4.0
1040,13,2022-03-07_15h31.37.670,25,52.0,2.0,2.0,0.05,-1,5.0,1.0,826.7,1.0,-0.0,4.0
1041,13,2022-03-07_15h31.37.670,26,54.0,4.0,4.0,0.05,-1,5.0,1.0,791.2,1.0,-0.0,4.0
1042,13,2022-03-07_15h31.37.670,27,46.0,-4.0,4.0,0.05,1,5.0,-1.0,824.9,1.0,-0.0,4.0
1043,13,2022-03-07_15h31.37.670,28,49.0,-1.0,1.0,0.05,1,5.0,-1.0,1549.3,1.0,-0.0,4.0
1044,13,2022-03-07_15h31.37.670,29,47.0,-3.0,3.0,0.05,1,5.0,-1.0,1249.3,1.0,-0.0,4.0
1045,13,2022-03-07_15h31.37.670,30,51.0,1.0,1.0,0.05,-1,5.0,-1.0,1018.6,0.0,-0.0,4.0
1046,13,2022-03-07_15h31.37.670,31,48.0,-2.0,2.0,0.05,1,5.0,1.0,900.4,0.0,-0.0,4.0
1047,13,2022-03-07_15h31.37.670,32,53.0,3.0,3.0,0.05,-1,5.0,1.0,1160.4,1.0,-0.0,4.0
1048,13,2022-03-07_15h31.37.670,33,53.0,3.0,3.0,10.0,-1,5.0,1.0,960.7,1.0,-0.0,5.0
1049,13,2022-03-07_15h31.37.670,34,49.0,-1.0,1.0,10.0,1,5.0,-1.0,2063.4,1.0,-0.0,5.0
1050,13,2022-03-07_15h31.37.670,35,54.0,4.0,4.0,10.0,-1,5.0,1.0,1493.4,1.0,-0.0,5.0
1051,13,2022-03-07_15h31.37.670,36,48.0,-2.0,2.0,10.0,1,5.0,-1.0,1464.0,1.0,-0.0,5.0
1052,13,2022-03-07_15h31.37.670,37,52.0,2.0,2.0,10.0,-1,5.0,1.0,929.0,1.0,-1.0,4.0
1053,13,2022-03-07_15h31.37.670,38,47.0,-3.0,3.0,10.0,1,5.0,-1.0,972.7,1.0,-0.0,4.0
1054,13,2022-03-07_15h31.37.670,39,51.0,1.0,1.0,10.0,-1,5.0,-1.0,1478.9,0.0,-0.0,4.0
1055,13,2022-03-07_15h31.37.670,40,46.0,-4.0,4.0,10.0,1,5.0,-1.0,1561.7,1.0,-0.0,4.0
1056,13,2022-03-07_15h31.37.670,41,46.0,-4.0,4.0,0.05,1,5.0,1.0,1228.1,0.0,-0.0,4.0
1057,13,2022-03-07_15h31.37.670,42,51.0,1.0,1.0,0.05,-1,5.0,1.0,1879.0,1.0,-0.0,4.0
1058,13,2022-03-07_15h31.37.670,43,54.0,4.0,4.0,0.05,-1,5.0,1.0,1715.3,1.0,-1.0,3.0
1059,13,2022-03-07_15h31.37.670,44,49.0,-1.0,1.0,0.05,1,5.0,1.0,2323.3,0.0,-0.0,3.0
1060,13,2022-03-07_15h31.37.670,45,48.0,-2.0,2.0,0.05,1,5.0,-1.0,1730.6,1.0,-0.0,3.0
1061,13,2022-03-07_15h31.37.670,46,53.0,3.0,3.0,0.05,-1,5.0,1.0,960.7,1.0,-1.0,2.0
1062,13,2022-03-07_15h31.37.670,47,52.0,2.0,2.0,0.05,-1,5.0,1.0,1163.6,1.0,-1.0,1.0
1063,13,2022-03-07_15h31.37.670,48,47.0,-3.0,3.0,0.05,1,5.0,1.0,1216.4,0.0,-0.0,1.0
1064,13,2022-03-07_15h31.37.670,49,51.0,1.0,1.0,0.05,1,5.0,1.0,1097.1,1.0,-0.0,1.0
1065,13,2022-03-07_15h31.37.670,50,48.0,-2.0,2.0,0.05,-1,5.0,1.0,1231.4,0.0,-1.0,0.0
1066,13,2022-03-07_15h31.37.670,51,51.0,1.0,1.0,0.05,0,0.0,1.0,1496.3,1.0,-0.0,0.0
1067,13,2022-03-07_15h31.37.670,52,54.0,4.0,4.0,0.05,0,0.0,1.0,6645.0,1.0,-0.0,0.0
1068,13,2022-03-07_15h31.37.670,53,49.0,-1.0,1.0,0.05,0,0.0,1.0,1428.0,0.0,-0.0,0.0
1069,13,2022-03-07_15h31.37.670,54,53.0,3.0,3.0,0.05,0,0.0,-1.0,1130.1,0.0,-0.0,0.0
1070,13,2022-03-07_15h31.37.670,55,46.0,-4.0,4.0,0.05,0,0.0,-1.0,1311.5,1.0,-0.0,0.0
1071,13,2022-03-07_15h31.37.670,56,48.0,-2.0,2.0,0.05,0,0.0,1.0,1162.4,0.0,-0.0,0.0
1072,13,2022-03-07_15h31.37.670,57,52.0,2.0,2.0,0.05,0,0.0,1.0,1166.0,1.0,-0.0,0.0
1073,13,2022-03-07_15h31.37.670,58,47.0,-3.0,3.0,0.05,0,0.0,1.0,2238.7,0.0,-0.0,0.0
1074,13,2022-03-07_15h31.37.670,59,47.0,-3.0,3.0,10.0,0,0.0,1.0,1743.5,0.0,-0.0,0.0
1075,13,2022-03-07_15h31.37.670,60,54.0,4.0,4.0,10.0,0,0.0,1.0,1632.1,1.0,-0.0,0.0
1076,13,2022-03-07_15h31.37.670,61,52.0,2.0,2.0,10.0,0,0.0,1.0,816.0,1.0,-0.0,0.0
1077,13,2022-03-07_15h31.37.670,62,46.0,-4.0,4.0,10.0,0,0.0,-1.0,1968.5,1.0,-0.0,0.0
1078,13,2022-03-07_15h31.37.670,63,51.0,1.0,1.0,10.0,0,0.0,1.0,827.0000000000001,1.0,-0.0,0.0
1079,13,2022-03-07_15h31.37.670,64,53.0,3.0,3.0,10.0,0,0.0,1.0,1889.8,1.0,-0.0,0.0
1080,13,2022-03-07_15h31.37.670,65,48.0,-2.0,2.0,10.0,0,0.0,1.0,1130.2,0.0,-0.0,0.0
1081,13,2022-03-07_15h31.37.670,66,49.0,-1.0,1.0,10.0,0,0.0,-1.0,1498.4,1.0,-0.0,0.0
1082,13,2022-03-07_15h31.37.670,67,49.0,-1.0,1.0,10.0,0,0.0,-1.0,1745.2,1.0,-0.0,0.0
1083,13,2022-03-07_15h31.37.670,68,51.0,1.0,1.0,10.0,0,0.0,1.0,1117.8,1.0,-0.0,0.0
1084,13,2022-03-07_15h31.37.670,69,46.0,-4.0,4.0,10.0,0,0.0,-1.0,1482.4,1.0,-0.0,0.0
1085,13,2022-03-07_15h31.37.670,70,47.0,-3.0,3.0,10.0,0,0.0,1.0,1980.0,0.0,-0.0,0.0
1086,13,2022-03-07_15h31.37.670,71,53.0,3.0,3.0,10.0,0,0.0,1.0,1555.5,1.0,-0.0,0.0
1087,13,2022-03-07_15h31.37.670,72,54.0,4.0,4.0,10.0,0,0.0,1.0,1334.1,1.0,-0.0,0.0
1088,13,2022-03-07_15h31.37.670,73,52.0,2.0,2.0,10.0,0,0.0,1.0,2012.2,1.0,-0.0,0.0
1089,13,2022-03-07_15h31.37.670,74,48.0,-2.0,2.0,10.0,0,0.0,1.0,1068.8,0.0,-0.0,0.0
1090,13,2022-03-07_15h31.37.670,75,46.0,-4.0,4.0,0.05,0,0.0,1.0,1312.6,0.0,-0.0,0.0
1091,13,2022-03-07_15h31.37.670,76,52.0,2.0,2.0,0.05,0,0.0,1.0,925.0,1.0,-0.0,0.0
1092,13,2022-03-07_15h31.37.670,77,49.0,-1.0,1.0,0.05,0,0.0,1.0,1223.4,0.0,-0.0,0.0
1093,13,2022-03-07_15h31.37.670,78,51.0,1.0,1.0,0.05,0,0.0,1.0,1395.4,1.0,-0.0,0.0
1094,13,2022-03-07_15h31.37.670,79,53.0,3.0,3.0,0.05,0,0.0,1.0,1463.4,1.0,-0.0,0.0
1095,13,2022-03-07_15h31.37.670,80,47.0,-3.0,3.0,0.05,0,0.0,1.0,714.0000000000001,0.0,-0.0,0.0
1096,13,2022-03-07_15h31.37.670,81,54.0,4.0,4.0,0.05,0,0.0,1.0,1029.7,1.0,-0.0,0.0
1097,13,2022-03-07_15h31.37.670,82,48.0,-2.0,2.0,0.05,0,0.0,1.0,1117.6,0.0,-0.0,0.0
1098,14,2022-03-08_13h50.26.491,1,51.0,1.0,1.0,10.0,0,0.0,1.0,2565.5,1.0,-0.0,0.0
1099,14,2022-03-08_13h50.26.491,2,52.0,2.0,2.0,10.0,0,0.0,1.0,1729.9,1.0,-0.0,0.0
1100,14,2022-03-08_13h50.26.491,3,46.0,-4.0,4.0,10.0,0,0.0,-1.0,1120.6,1.0,-0.0,0.0
1101,14,2022-03-08_13h50.26.491,4,47.0,-3.0,3.0,10.0,0,0.0,-1.0,1039.5,1.0,-0.0,0.0
1102,14,2022-03-08_13h50.26.491,5,49.0,-1.0,1.0,10.0,0,0.0,-1.0,2386.1,1.0,-0.0,0.0
1103,14,2022-03-08_13h50.26.491,6,54.0,4.0,4.0,10.0,0,0.0,1.0,1273.0,1.0,-0.0,0.0
1104,14,2022-03-08_13h50.26.491,7,48.0,-2.0,2.0,10.0,0,0.0,-1.0,1303.5,1.0,-0.0,0.0
1105,14,2022-03-08_13h50.26.491,8,53.0,3.0,3.0,10.0,0,0.0,1.0,2124.7,1.0,-0.0,0.0
1106,14,2022-03-08_13h50.26.491,9,54.0,4.0,4.0,10.0,0,0.0,-1.0,909.4,0.0,-0.0,0.0
1107,14,2022-03-08_13h50.26.491,10,53.0,3.0,3.0,10.0,0,0.0,1.0,904.5999999999999,1.0,-0.0,0.0
1108,14,2022-03-08_13h50.26.491,11,47.0,-3.0,3.0,10.0,0,0.0,-1.0,862.7,1.0,-0.0,0.0
1109,14,2022-03-08_13h50.26.491,12,51.0,1.0,1.0,10.0,0,0.0,-1.0,3307.4,0.0,-0.0,0.0
1110,14,2022-03-08_13h50.26.491,13,52.0,2.0,2.0,10.0,0,0.0,1.0,1535.8,1.0,-0.0,0.0
1111,14,2022-03-08_13h50.26.491,14,48.0,-2.0,2.0,10.0,0,0.0,1.0,1217.3,0.0,-0.0,0.0
1112,14,2022-03-08_13h50.26.491,15,46.0,-4.0,4.0,10.0,0,0.0,-1.0,1315.7,1.0,-0.0,0.0
1113,14,2022-03-08_13h50.26.491,16,49.0,-1.0,1.0,10.0,0,0.0,-1.0,1050.0,1.0,-0.0,0.0
1114,14,2022-03-08_13h50.26.491,17,48.0,-2.0,2.0,0.05,0,0.0,-1.0,1146.2,1.0,-0.0,0.0
1115,14,2022-03-08_13h50.26.491,18,47.0,-3.0,3.0,0.05,0,0.0,-1.0,1064.0,1.0,-0.0,0.0
1116,14,2022-03-08_13h50.26.491,19,49.0,-1.0,1.0,0.05,0,0.0,1.0,2049.8,0.0,-0.0,0.0
1117,14,2022-03-08_13h50.26.491,20,53.0,3.0,3.0,0.05,0,0.0,-1.0,938.5,0.0,-0.0,0.0
1118,14,2022-03-08_13h50.26.491,21,51.0,1.0,1.0,0.05,0,0.0,-1.0,1070.4,0.0,-0.0,0.0
1119,14,2022-03-08_13h50.26.491,22,54.0,4.0,4.0,0.05,0,0.0,1.0,1629.9,1.0,-0.0,0.0
1120,14,2022-03-08_13h50.26.491,23,52.0,2.0,2.0,0.05,0,0.0,1.0,1053.9,1.0,-0.0,0.0
1121,14,2022-03-08_13h50.26.491,24,46.0,-4.0,4.0,0.05,0,0.0,-1.0,846.3000000000001,1.0,-0.0,0.0
1122,14,2022-03-08_13h50.26.491,25,48.0,-2.0,2.0,0.05,0,0.0,-1.0,1076.2,1.0,-0.0,0.0
1123,14,2022-03-08_13h50.26.491,26,46.0,-4.0,4.0,0.05,0,0.0,-1.0,876.8000000000001,1.0,-0.0,0.0
1124,14,2022-03-08_13h50.26.491,27,47.0,-3.0,3.0,0.05,0,0.0,-1.0,3103.4,1.0,-0.0,0.0
1125,14,2022-03-08_13h50.26.491,28,53.0,3.0,3.0,0.05,0,0.0,1.0,1839.3,1.0,-0.0,0.0
1126,14,2022-03-08_13h50.26.491,29,54.0,4.0,4.0,0.05,0,0.0,-1.0,894.5,0.0,-0.0,0.0
1127,14,2022-03-08_13h50.26.491,30,49.0,-1.0,1.0,0.05,0,0.0,1.0,1546.3,0.0,-0.0,0.0
1128,14,2022-03-08_13h50.26.491,31,52.0,2.0,2.0,0.05,0,0.0,-1.0,944.6999999999999,0.0,-0.0,0.0
1129,14,2022-03-08_13h50.26.491,32,51.0,1.0,1.0,0.05,0,0.0,-1.0,971.8,0.0,-0.0,0.0
1130,14,2022-03-08_13h50.26.491,33,46.0,-4.0,4.0,0.05,1,5.0,-1.0,1195.2,1.0,-0.0,5.0
1131,14,2022-03-08_13h50.26.491,34,53.0,3.0,3.0,0.05,-1,5.0,-1.0,1441.0,0.0,-1.0,4.0
1132,14,2022-03-08_13h50.26.491,35,48.0,-2.0,2.0,0.05,1,5.0,-1.0,979.8,1.0,-0.0,4.0
1133,14,2022-03-08_13h50.26.491,36,52.0,2.0,2.0,0.05,-1,5.0,1.0,1352.9,1.0,-0.0,4.0
1134,14,2022-03-08_13h50.26.491,37,47.0,-3.0,3.0,0.05,1,5.0,-1.0,1675.3,1.0,-0.0,4.0
1135,14,2022-03-08_13h50.26.491,38,51.0,1.0,1.0,0.05,-1,5.0,1.0,2294.5,1.0,-0.0,4.0
1136,14,2022-03-08_13h50.26.491,39,54.0,4.0,4.0,0.05,-1,5.0,-1.0,1917.5,0.0,-1.0,3.0
1137,14,2022-03-08_13h50.26.491,40,49.0,-1.0,1.0,0.05,1,5.0,-1.0,1352.3,1.0,-0.0,3.0
1138,14,2022-03-08_13h50.26.491,41,51.0,1.0,1.0,10.0,-1,5.0,-1.0,1207.5,0.0,-0.0,3.0
1139,14,2022-03-08_13h50.26.491,42,49.0,-1.0,1.0,10.0,1,5.0,-1.0,1631.6,1.0,-0.0,3.0
1140,14,2022-03-08_13h50.26.491,43,54.0,4.0,4.0,10.0,-1,5.0,1.0,1239.9,1.0,-0.0,3.0
1141,14,2022-03-08_13h50.26.491,44,52.0,2.0,2.0,10.0,-1,5.0,1.0,1757.0,1.0,-0.0,3.0
1142,14,2022-03-08_13h50.26.491,45,53.0,3.0,3.0,10.0,-1,5.0,-1.0,5116.900000000001,0.0,-0.0,3.0
1143,14,2022-03-08_13h50.26.491,46,46.0,-4.0,4.0,10.0,1,5.0,-1.0,1509.0,1.0,-0.0,3.0
1144,14,2022-03-08_13h50.26.491,47,47.0,-3.0,3.0,10.0,1,5.0,1.0,2017.2,0.0,-0.0,3.0
1145,14,2022-03-08_13h50.26.491,48,48.0,-2.0,2.0,10.0,1,5.0,-1.0,2976.6,1.0,-0.0,3.0
1146,14,2022-03-08_13h50.26.491,49,52.0,2.0,2.0,10.0,1,5.0,-1.0,2561.4,0.0,-0.0,3.0
1147,14,2022-03-08_13h50.26.491,50,53.0,3.0,3.0,10.0,1,5.0,1.0,1865.2,1.0,-0.0,3.0
1148,14,2022-03-08_13h50.26.491,51,46.0,-4.0,4.0,10.0,-1,5.0,-1.0,3272.8,1.0,-0.0,3.0
1149,14,2022-03-08_13h50.26.491,52,47.0,-3.0,3.0,10.0,-1,5.0,1.0,3425.7,0.0,-0.0,3.0
1150,14,2022-03-08_13h50.26.491,53,49.0,-1.0,1.0,10.0,-1,5.0,-1.0,2765.3,1.0,-1.0,2.0
1151,14,2022-03-08_13h50.26.491,54,51.0,1.0,1.0,10.0,1,5.0,-1.0,2329.9,0.0,-0.0,2.0
1152,14,2022-03-08_13h50.26.491,55,54.0,4.0,4.0,10.0,1,5.0,-1.0,3161.6,0.0,-0.0,2.0
1153,14,2022-03-08_13h50.26.491,56,48.0,-2.0,2.0,10.0,-1,5.0,-1.0,1841.1,1.0,-0.0,2.0
1154,14,2022-03-08_13h50.26.491,57,54.0,4.0,4.0,0.05,1,5.0,1.0,2514.9,1.0,-0.0,2.0
1155,14,2022-03-08_13h50.26.491,58,46.0,-4.0,4.0,0.05,-1,5.0,1.0,3776.6,0.0,-1.0,1.0
1156,14,2022-03-08_13h50.26.491,59,51.0,1.0,1.0,0.05,1,5.0,-1.0,2406.4,0.0,-0.0,1.0
1157,14,2022-03-08_13h50.26.491,60,49.0,-1.0,1.0,0.05,-1,5.0,1.0,2773.2,0.0,-0.0,1.0
1158,14,2022-03-08_13h50.26.491,61,48.0,-2.0,2.0,0.05,-1,5.0,-1.0,4389.700000000001,1.0,-0.0,1.0
1159,14,2022-03-08_13h50.26.491,62,53.0,3.0,3.0,0.05,1,5.0,1.0,3316.7,1.0,-0.0,1.0
1160,14,2022-03-08_13h50.26.491,63,52.0,2.0,2.0,0.05,1,5.0,1.0,3519.7,1.0,-0.0,1.0
1161,14,2022-03-08_13h50.26.491,64,47.0,-3.0,3.0,0.05,-1,5.0,-1.0,4233.7,1.0,-0.0,1.0
1162,14,2022-03-08_13h50.26.491,65,46.0,-4.0,4.0,0.05,-1,5.0,-1.0,989.4,1.0,-0.0,5.0
1163,14,2022-03-08_13h50.26.491,66,52.0,2.0,2.0,0.05,1,5.0,1.0,3624.0,1.0,-0.0,5.0
1164,14,2022-03-08_13h50.26.491,67,48.0,-2.0,2.0,0.05,-1,5.0,1.0,1619.9,0.0,-0.0,5.0
1165,14,2022-03-08_13h50.26.491,68,47.0,-3.0,3.0,0.05,-1,5.0,-1.0,1732.3,1.0,-1.0,4.0
1166,14,2022-03-08_13h50.26.491,69,51.0,1.0,1.0,0.05,1,5.0,-1.0,2018.6,0.0,-0.0,4.0
1167,14,2022-03-08_13h50.26.491,70,49.0,-1.0,1.0,0.05,-1,5.0,1.0,1820.6,0.0,-0.0,4.0
1168,14,2022-03-08_13h50.26.491,71,54.0,4.0,4.0,0.05,1,5.0,-1.0,3018.8,0.0,-0.0,4.0
1169,14,2022-03-08_13h50.26.491,72,53.0,3.0,3.0,0.05,1,5.0,-1.0,3050.2,0.0,-0.0,4.0
1170,14,2022-03-08_13h50.26.491,73,52.0,2.0,2.0,10.0,-1,5.0,1.0,3284.2,1.0,-1.0,3.0
1171,14,2022-03-08_13h50.26.491,74,46.0,-4.0,4.0,10.0,1,5.0,-1.0,1505.2,1.0,-0.0,3.0
1172,14,2022-03-08_13h50.26.491,75,47.0,-3.0,3.0,10.0,1,5.0,1.0,2616.4,0.0,-0.0,3.0
1173,14,2022-03-08_13h50.26.491,76,51.0,1.0,1.0,10.0,-1,5.0,-1.0,1948.8,0.0,-0.0,3.0
1174,14,2022-03-08_13h50.26.491,77,54.0,4.0,4.0,10.0,-1,5.0,1.0,1547.3,1.0,-1.0,2.0
1175,14,2022-03-08_13h50.26.491,78,48.0,-2.0,2.0,10.0,1,5.0,-1.0,1682.5,1.0,-0.0,2.0
1176,14,2022-03-08_13h50.26.491,79,53.0,3.0,3.0,10.0,-1,5.0,1.0,2571.7,1.0,-0.0,2.0
1177,14,2022-03-08_13h50.26.491,80,49.0,-1.0,1.0,10.0,1,5.0,-1.0,2536.7,1.0,-0.0,2.0
1178,14,2022-03-08_13h50.26.491,81,54.0,4.0,4.0,0.05,-1,5.0,-1.0,4767.8,0.0,-1.0,1.0
1179,14,2022-03-08_13h50.26.491,82,51.0,1.0,1.0,0.05,-1,5.0,-1.0,2283.3,0.0,-0.0,1.0
1180,14,2022-03-08_13h50.26.491,83,49.0,-1.0,1.0,0.05,1,5.0,1.0,1545.6,0.0,-0.0,1.0
1181,14,2022-03-08_13h50.26.491,84,46.0,-4.0,4.0,0.05,1,5.0,-1.0,2152.0,1.0,-0.0,1.0
1182,14,2022-03-08_13h50.26.491,85,52.0,2.0,2.0,0.05,-1,5.0,-1.0,1742.8,0.0,-0.0,1.0
1183,14,2022-03-08_13h50.26.491,86,53.0,3.0,3.0,0.05,-1,5.0,1.0,1589.4,1.0,-1.0,0.0
1184,15,2022-03-08_09h17.55.277,1,54.0,4.0,4.0,10.0,1,5.0,1.0,2466.0,1.0,-0.0,5.0
1185,15,2022-03-08_09h17.55.277,2,49.0,-1.0,1.0,10.0,-1,5.0,-1.0,2511.0,1.0,-0.0,5.0
1186,15,2022-03-08_09h17.55.277,3,51.0,1.0,1.0,10.0,1,5.0,-1.0,6494.0,0.0,-0.0,5.0
1187,15,2022-03-08_09h17.55.277,4,53.0,3.0,3.0,10.0,1,5.0,1.0,2782.0,1.0,-0.0,5.0
