,participant,date,trial,angle,stim,stim_strength,incentive,desirability,endowment_size,remain_endowment,resp,rt,correct
0,1,2021-02-23_16h05.47.798,1,-89.493169,-0.506831,0.506831,0.1,0,0.0,0.0,1.0,2476.735,0.0
1,1,2021-02-23_16h05.47.798,2,88.26713199999999,1.732868,1.732868,0.1,0,0.0,0.0,1.0,2310.175,1.0
2,1,2021-02-23_16h05.47.798,3,1.732868,1.732868,1.732868,0.1,0,0.0,0.0,-1.0,3982.585,0.0
3,1,2021-02-23_16h05.47.798,4,-88.26713199999999,-1.732868,1.732868,0.1,0,0.0,0.0,-1.0,2004.485,1.0
4,1,2021-02-23_16h05.47.798,5,89.493169,0.506831,0.506831,0.1,0,0.0,0.0,1.0,2202.085,1.0
5,1,2021-02-23_16h05.47.798,6,-1.732868,-1.732868,1.732868,0.1,0,0.0,0.0,-1.0,3948.14,1.0
6,1,2021-02-23_16h05.47.798,7,0.506831,0.506831,0.506831,0.1,0,0.0,0.0,1.0,2188.02,1.0
7,1,2021-02-23_16h05.47.798,8,-0.506831,-0.506831,0.506831,0.1,0,0.0,0.0,-1.0,4266.27,1.0
8,1,2021-02-23_16h05.47.798,9,89.493169,0.506831,0.506831,0.1,0,0.0,0.0,1.0,1903.115,1.0
9,1,2021-02-23_16h05.47.798,10,88.26713199999999,1.732868,1.732868,0.1,0,0.0,0.0,1.0,2172.585,1.0
10,1,2021-02-23_16h05.47.798,11,-1.732868,-1.732868,1.732868,0.1,0,0.0,0.0,-1.0,2709.485,1.0
11,1,2021-02-23_16h05.47.798,12,-88.26713199999999,-1.732868,1.732868,0.1,0,0.0,0.0,-1.0,2171.075,1.0
12,1,2021-02-23_16h05.47.798,13,1.732868,1.732868,1.732868,0.1,0,0.0,0.0,1.0,3477.14,1.0
13,1,2021-02-23_16h05.47.798,14,0.506831,0.506831,0.506831,0.1,0,0.0,0.0,1.0,6268.785,1.0
14,1,2021-02-23_16h05.47.798,15,-89.493169,-0.506831,0.506831,0.1,0,0.0,0.0,-1.0,1995.02,1.0
15,1,2021-02-23_16h05.47.798,16,-0.506831,-0.506831,0.506831,0.1,0,0.0,0.0,-1.0,2882.29,1.0
16,1,2021-02-23_16h05.47.798,17,0.506831,0.506831,0.506831,8.0,0,0.0,0.0,-1.0,2316.68,0.0
17,1,2021-02-23_16h05.47.798,18,1.732868,1.732868,1.732868,8.0,0,0.0,0.0,-1.0,3200.04,0.0
18,1,2021-02-23_16h05.47.798,19,88.26713199999999,1.732868,1.732868,8.0,0,0.0,0.0,1.0,2133.74,1.0
19,1,2021-02-23_16h05.47.798,20,-1.732868,-1.732868,1.732868,8.0,0,0.0,0.0,-1.0,2866.905,1.0
20,1,2021-02-23_16h05.47.798,21,-0.506831,-0.506831,0.506831,8.0,0,0.0,0.0,-1.0,2118.135,1.0
21,1,2021-02-23_16h05.47.798,22,-89.493169,-0.506831,0.506831,8.0,0,0.0,0.0,-1.0,1681.78,1.0
22,1,2021-02-23_16h05.47.798,23,89.493169,0.506831,0.506831,8.0,0,0.0,0.0,-1.0,2184.995,0.0
23,1,2021-02-23_16h05.47.798,24,-88.26713199999999,-1.732868,1.732868,8.0,0,0.0,0.0,-1.0,1691.26,1.0
24,1,2021-02-23_16h05.47.798,25,-88.26713199999999,-1.732868,1.732868,8.0,0,0.0,0.0,-1.0,1399.52,1.0
25,1,2021-02-23_16h05.47.798,26,89.493169,0.506831,0.506831,8.0,0,0.0,0.0,1.0,2308.105,1.0
26,1,2021-02-23_16h05.47.798,27,-1.732868,-1.732868,1.732868,8.0,0,0.0,0.0,-1.0,1914.07,1.0
27,1,2021-02-23_16h05.47.798,28,-89.493169,-0.506831,0.506831,8.0,0,0.0,0.0,1.0,1788.485,0.0
28,1,2021-02-23_16h05.47.798,29,0.506831,0.506831,0.506831,8.0,0,0.0,0.0,1.0,2928.89,1.0
29,1,2021-02-23_16h05.47.798,30,-0.506831,-0.506831,0.506831,8.0,0,0.0,0.0,-1.0,2145.445,1.0
30,1,2021-02-23_16h05.47.798,31,1.732868,1.732868,1.732868,8.0,0,0.0,0.0,1.0,1648.48,1.0
31,1,2021-02-23_16h05.47.798,32,88.26713199999999,1.732868,1.732868,8.0,0,0.0,0.0,1.0,1847.15,1.0
32,1,2021-02-23_16h05.47.798,33,-0.506831,-0.506831,0.506831,8.0,1,25.0,25.0,-1.0,1685.315,1.0
33,1,2021-02-23_16h05.47.798,34,0.506831,0.506831,0.506831,8.0,-1,25.0,20.0,1.0,1772.545,1.0
34,1,2021-02-23_16h05.47.798,35,-88.26713199999999,-1.732868,1.732868,8.0,1,25.0,20.0,-1.0,1923.695,1.0
35,1,2021-02-23_16h05.47.798,36,88.26713199999999,1.732868,1.732868,8.0,-1,25.0,20.0,1.0,2603.83,1.0
36,1,2021-02-23_16h05.47.798,37,-1.732868,-1.732868,1.732868,8.0,1,25.0,20.0,-1.0,1860.68,1.0
37,1,2021-02-23_16h05.47.798,38,-89.493169,-0.506831,0.506831,8.0,1,25.0,20.0,1.0,1948.885,0.0
38,1,2021-02-23_16h05.47.798,39,1.732868,1.732868,1.732868,8.0,-1,25.0,15.0,1.0,4244.195,1.0
39,1,2021-02-23_16h05.47.798,40,89.493169,0.506831,0.506831,8.0,-1,25.0,10.0,1.0,2299.875,1.0
40,1,2021-02-23_16h05.47.798,41,0.506831,0.506831,0.506831,8.0,1,25.0,10.0,1.0,3504.934999999999,1.0
41,1,2021-02-23_16h05.47.798,42,1.732868,1.732868,1.732868,8.0,1,25.0,10.0,1.0,2141.08,1.0
42,1,2021-02-23_16h05.47.798,43,88.26713199999999,1.732868,1.732868,8.0,1,25.0,10.0,1.0,1402.615,1.0
43,1,2021-02-23_16h05.47.798,44,89.493169,0.506831,0.506831,8.0,1,25.0,10.0,1.0,2909.21,1.0
44,1,2021-02-23_16h05.47.798,45,-0.506831,-0.506831,0.506831,8.0,-1,25.0,10.0,-1.0,1355.715,1.0
45,1,2021-02-23_16h05.47.798,46,-1.732868,-1.732868,1.732868,8.0,-1,25.0,10.0,-1.0,1539.63,1.0
46,1,2021-02-23_16h05.47.798,47,-88.26713199999999,-1.732868,1.732868,8.0,-1,25.0,10.0,1.0,1782.485,0.0
47,1,2021-02-23_16h05.47.798,48,-89.493169,-0.506831,0.506831,8.0,-1,25.0,5.0,1.0,1502.19,0.0
48,1,2021-02-23_16h05.47.798,49,89.493169,0.506831,0.506831,0.1,1,25.0,5.0,-1.0,2237.085,0.0
49,1,2021-02-23_16h05.47.798,50,-1.732868,-1.732868,1.732868,0.1,-1,25.0,5.0,-1.0,1781.255,1.0
50,1,2021-02-23_16h05.47.798,51,-89.493169,-0.506831,0.506831,0.1,-1,25.0,0.0,1.0,3153.585,0.0
51,1,2021-02-23_16h05.47.798,52,1.732868,1.732868,1.732868,8.0,-1,0.5,0.5,-1.0,2482.125,0.0
52,1,2021-02-23_16h05.47.798,53,0.506831,0.506831,0.506831,8.0,-1,0.5,0.5,1.0,3047.97,1.0
53,1,2021-02-23_16h05.47.798,54,-1.732868,-1.732868,1.732868,8.0,1,0.5,0.5,-1.0,1121.975,1.0
54,1,2021-02-23_16h05.47.798,55,88.26713199999999,1.732868,1.732868,8.0,-1,0.5,0.5,1.0,1720.075,1.0
55,1,2021-02-23_16h05.47.798,56,-89.493169,-0.506831,0.506831,8.0,1,0.5,0.5,-1.0,2057.190000000001,1.0
56,1,2021-02-23_16h05.47.798,57,-88.26713199999999,-1.732868,1.732868,8.0,1,0.5,0.5,1.0,3154.955,0.0
57,1,2021-02-23_16h05.47.798,58,89.493169,0.506831,0.506831,8.0,-1,0.5,0.5,1.0,4793.025,1.0
58,1,2021-02-23_16h05.47.798,59,-0.506831,-0.506831,0.506831,8.0,1,0.5,0.5,-1.0,1397.94,1.0
59,1,2021-02-23_16h05.47.798,60,0.506831,0.506831,0.506831,8.0,1,0.5,0.5,1.0,2306.63,1.0
60,1,2021-02-23_16h05.47.798,61,-88.26713199999999,-1.732868,1.732868,8.0,-1,0.5,0.5,-1.0,1634.09,1.0
61,1,2021-02-23_16h05.47.798,62,-1.732868,-1.732868,1.732868,8.0,-1,0.5,0.5,-1.0,1903.24,1.0
62,1,2021-02-23_16h05.47.798,63,1.732868,1.732868,1.732868,8.0,1,0.5,0.5,1.0,3308.585,1.0
63,1,2021-02-23_16h05.47.798,64,-0.506831,-0.506831,0.506831,8.0,-1,0.5,0.5,1.0,2023.185,0.0
64,1,2021-02-23_16h05.47.798,65,88.26713199999999,1.732868,1.732868,8.0,1,0.5,0.5,1.0,1562.85,1.0
65,1,2021-02-23_16h05.47.798,66,-89.493169,-0.506831,0.506831,8.0,-1,0.5,0.5,1.0,2324.865,0.0
66,1,2021-02-23_16h05.47.798,67,89.493169,0.506831,0.506831,8.0,1,0.5,0.5,1.0,1276.065,1.0
67,1,2021-02-23_16h05.47.798,68,-0.506831,-0.506831,0.506831,0.1,-1,0.5,0.5,-1.0,2662.095,1.0
68,1,2021-02-23_16h05.47.798,69,0.506831,0.506831,0.506831,0.1,1,0.5,0.5,1.0,1848.185,1.0
69,1,2021-02-23_16h05.47.798,70,-89.493169,-0.506831,0.506831,0.1,-1,0.5,0.5,-1.0,1869.78,1.0
70,1,2021-02-23_16h05.47.798,71,1.732868,1.732868,1.732868,0.1,1,0.5,0.5,1.0,1449.445,1.0
71,1,2021-02-23_16h05.47.798,72,-88.26713199999999,-1.732868,1.732868,0.1,-1,0.5,0.5,-1.0,1913.4,1.0
72,1,2021-02-23_16h05.47.798,73,89.493169,0.506831,0.506831,0.1,1,0.5,0.5,1.0,1817.545,1.0
73,1,2021-02-23_16h05.47.798,74,88.26713199999999,1.732868,1.732868,0.1,1,0.5,0.5,1.0,1753.2,1.0
74,1,2021-02-23_16h05.47.798,75,-1.732868,-1.732868,1.732868,0.1,-1,0.5,0.5,-1.0,2021.375,1.0
75,1,2021-02-23_16h05.47.798,76,-0.506831,-0.506831,0.506831,0.1,1,0.5,0.5,-1.0,2642.33,1.0
76,1,2021-02-23_16h05.47.798,77,89.493169,0.506831,0.506831,0.1,-1,0.5,0.4,1.0,1348.2,1.0
77,1,2021-02-23_16h05.47.798,78,-1.732868,-1.732868,1.732868,0.1,1,0.5,0.4,-1.0,2083.065,1.0
78,1,2021-02-23_16h05.47.798,79,0.506831,0.506831,0.506831,0.1,-1,0.5,0.4,-1.0,1548.575,0.0
79,1,2021-02-23_16h05.47.798,80,1.732868,1.732868,1.732868,0.1,-1,0.5,0.4,-1.0,2854.925,0.0
80,1,2021-02-23_16h05.47.798,81,88.26713199999999,1.732868,1.732868,0.1,-1,0.5,0.4,1.0,1735.215,1.0
81,1,2021-02-23_16h05.47.798,82,-89.493169,-0.506831,0.506831,0.1,1,0.5,0.4,-1.0,2933.275,1.0
82,1,2021-02-23_16h05.47.798,83,-88.26713199999999,-1.732868,1.732868,0.1,1,0.5,0.4,-1.0,1715.035,1.0
83,2,2021-02-23_16h27.13.888,1,1.732868,1.732868,1.732868,0.1,1,0.5,0.5,1.0,3319.0,1.0
84,2,2021-02-23_16h27.13.888,2,-89.493169,-0.506831,0.506831,0.1,-1,0.5,0.5,-1.0,1645.0,1.0
85,2,2021-02-23_16h27.13.888,3,88.26713199999999,1.732868,1.732868,0.1,1,0.5,0.5,1.0,1257.0,1.0
86,2,2021-02-23_16h27.13.888,4,0.506831,0.506831,0.506831,0.1,1,0.5,0.5,1.0,1368.0,1.0
87,2,2021-02-23_16h27.13.888,5,-1.732868,-1.732868,1.732868,0.1,-1,0.5,0.5,-1.0,1101.0,1.0
88,2,2021-02-23_16h27.13.888,6,-0.506831,-0.506831,0.506831,0.1,-1,0.5,0.4,-1.0,1343.0,1.0
89,2,2021-02-23_16h27.13.888,7,89.493169,0.506831,0.506831,0.1,1,0.5,0.4,-1.0,2864.0,0.0
90,2,2021-02-23_16h27.13.888,8,-88.26713199999999,-1.732868,1.732868,0.1,-1,0.5,0.4,-1.0,1107.0,1.0
91,2,2021-02-23_16h27.13.888,9,88.26713199999999,1.732868,1.732868,0.1,-1,0.5,0.3,1.0,3933.0,1.0
92,2,2021-02-23_16h27.13.888,10,-89.493169,-0.506831,0.506831,0.1,1,0.5,0.3,-1.0,1777.0,1.0
93,2,2021-02-23_16h27.13.888,11,-1.732868,-1.732868,1.732868,0.1,1,0.5,0.3,-1.0,1792.0,1.0
94,2,2021-02-23_16h27.13.888,12,0.506831,0.506831,0.506831,0.1,-1,0.5,0.2,-1.0,2253.0,0.0
95,2,2021-02-23_16h27.13.888,13,89.493169,0.506831,0.506831,0.1,-1,0.5,0.2,-1.0,1347.0,0.0
96,2,2021-02-23_16h27.13.888,14,1.732868,1.732868,1.732868,0.1,-1,0.5,0.2,1.0,1203.0,1.0
97,2,2021-02-23_16h27.13.888,15,-0.506831,-0.506831,0.506831,0.1,1,0.5,0.2,-1.0,1020.0,1.0
98,2,2021-02-23_16h27.13.888,16,-88.26713199999999,-1.732868,1.732868,0.1,1,0.5,0.2,-1.0,975.0,1.0
99,2,2021-02-23_16h27.13.888,17,-88.26713199999999,-1.732868,1.732868,8.0,-1,0.5,0.2,-1.0,1039.0,1.0
100,2,2021-02-23_16h27.13.888,18,0.506831,0.506831,0.506831,8.0,1,0.5,0.2,1.0,985.0,1.0
101,2,2021-02-23_16h27.13.888,19,88.26713199999999,1.732868,1.732868,8.0,1,0.5,0.2,1.0,1170.0,1.0
102,2,2021-02-23_16h27.13.888,20,-89.493169,-0.506831,0.506831,8.0,-1,0.5,0.1,-1.0,2324.0,1.0
103,2,2021-02-23_16h27.13.888,21,-1.732868,-1.732868,1.732868,8.0,-1,0.5,0.1,-1.0,1600.0,1.0
104,2,2021-02-23_16h27.13.888,22,1.732868,1.732868,1.732868,8.0,1,0.5,0.1,1.0,1008.0,1.0
105,2,2021-02-23_16h27.13.888,23,-0.506831,-0.506831,0.506831,8.0,-1,0.5,0.1,-1.0,2594.0,1.0
106,2,2021-02-23_16h27.13.888,24,89.493169,0.506831,0.506831,8.0,1,0.5,0.1,-1.0,2346.0,0.0
107,2,2021-02-23_16h27.13.888,25,-1.732868,-1.732868,1.732868,8.0,1,0.5,0.1,-1.0,2004.0,1.0
108,2,2021-02-23_16h27.13.888,26,-89.493169,-0.506831,0.506831,8.0,1,0.5,0.1,-1.0,947.0000000000001,1.0
109,2,2021-02-23_16h27.13.888,27,-0.506831,-0.506831,0.506831,8.0,1,0.5,0.1,-1.0,1253.0,1.0
110,2,2021-02-23_16h27.13.888,28,1.732868,1.732868,1.732868,8.0,-1,0.5,2.77556e-17,1.0,1496.0,1.0
111,2,2021-02-23_16h27.13.888,29,-1.732868,-1.732868,1.732868,8.0,1,25.0,25.0,-1.0,893.0,1.0
112,2,2021-02-23_16h27.13.888,30,-88.26713199999999,-1.732868,1.732868,8.0,1,25.0,25.0,-1.0,884.0,1.0
113,2,2021-02-23_16h27.13.888,31,1.732868,1.732868,1.732868,8.0,-1,25.0,20.0,1.0,1241.0,1.0
114,2,2021-02-23_16h27.13.888,32,-0.506831,-0.506831,0.506831,8.0,1,25.0,20.0,-1.0,2035.0,1.0
115,2,2021-02-23_16h27.13.888,33,88.26713199999999,1.732868,1.732868,8.0,-1,25.0,15.0,1.0,2903.0,1.0
116,2,2021-02-23_16h27.13.888,34,-89.493169,-0.506831,0.506831,8.0,1,25.0,15.0,-1.0,1360.0,1.0
117,2,2021-02-23_16h27.13.888,35,0.506831,0.506831,0.506831,8.0,-1,25.0,15.0,-1.0,54654.0,0.0
118,2,2021-02-23_16h27.13.888,36,89.493169,0.506831,0.506831,8.0,-1,25.0,10.0,1.0,34907.0,1.0
119,2,2021-02-23_16h27.13.888,37,88.26713199999999,1.732868,1.732868,0.1,-1,25.0,10.0,1.0,22591.0,1.0
120,2,2021-02-23_16h27.13.888,38,-89.493169,-0.506831,0.506831,0.1,1,25.0,10.0,-1.0,1883.0,1.0
121,2,2021-02-23_16h27.13.888,39,-0.506831,-0.506831,0.506831,0.1,1,25.0,10.0,-1.0,1875.0,1.0
122,2,2021-02-23_16h27.13.888,40,89.493169,0.506831,0.506831,0.1,-1,25.0,10.0,1.0,21770.0,1.0
123,2,2021-02-23_16h27.13.888,41,1.732868,1.732868,1.732868,0.1,-1,25.0,10.0,1.0,21282.0,1.0
124,2,2021-02-23_16h27.13.888,42,0.506831,0.506831,0.506831,0.1,-1,25.0,10.0,1.0,23728.0,1.0
125,2,2021-02-23_16h27.13.888,43,-88.26713199999999,-1.732868,1.732868,0.1,1,25.0,10.0,-1.0,2423.0,1.0
126,2,2021-02-23_16h27.13.888,44,-1.732868,-1.732868,1.732868,0.1,1,25.0,10.0,-1.0,1772.0,1.0
127,2,2021-02-23_16h27.13.888,45,88.26713199999999,1.732868,1.732868,8.0,1,25.0,10.0,1.0,1487.0,1.0
128,2,2021-02-23_16h27.13.888,46,-89.493169,-0.506831,0.506831,8.0,-1,25.0,10.0,-1.0,19466.0,1.0
129,2,2021-02-23_16h27.13.888,47,-1.732868,-1.732868,1.732868,8.0,-1,25.0,5.0,-1.0,1761.0,1.0
130,2,2021-02-23_16h27.13.888,48,89.493169,0.506831,0.506831,8.0,1,25.0,5.0,1.0,45568.99999999999,1.0
131,2,2021-02-23_16h27.13.888,49,-0.506831,-0.506831,0.506831,8.0,-1,25.0,5.0,-1.0,17661.0,1.0
132,2,2021-02-23_16h27.13.888,50,1.732868,1.732868,1.732868,8.0,1,25.0,5.0,1.0,14734.0,1.0
133,2,2021-02-23_16h27.13.888,51,-88.26713199999999,-1.732868,1.732868,8.0,-1,25.0,0.0,-1.0,18151.0,1.0
134,2,2021-02-23_16h27.13.888,52,0.506831,0.506831,0.506831,8.0,0,0.0,0.0,-1.0,18205.0,0.0
135,2,2021-02-23_16h27.13.888,53,-1.732868,-1.732868,1.732868,8.0,0,0.0,0.0,-1.0,1912.0,1.0
136,2,2021-02-23_16h27.13.888,54,-88.26713199999999,-1.732868,1.732868,8.0,0,0.0,0.0,-1.0,1145.0,1.0
137,2,2021-02-23_16h27.13.888,55,89.493169,0.506831,0.506831,8.0,0,0.0,0.0,-1.0,1198.0,0.0
138,2,2021-02-23_16h27.13.888,56,88.26713199999999,1.732868,1.732868,8.0,0,0.0,0.0,-1.0,1420.0,0.0
139,2,2021-02-23_16h27.13.888,57,-89.493169,-0.506831,0.506831,8.0,0,0.0,0.0,-1.0,1072.0,1.0
140,2,2021-02-23_16h27.13.888,58,-0.506831,-0.506831,0.506831,8.0,0,0.0,0.0,-1.0,1282.0,1.0
141,2,2021-02-23_16h27.13.888,59,1.732868,1.732868,1.732868,8.0,0,0.0,0.0,1.0,1485.0,1.0
142,2,2021-02-23_16h27.13.888,60,-0.506831,-0.506831,0.506831,0.1,0,0.0,0.0,-1.0,1236.0,1.0
143,2,2021-02-23_16h27.13.888,61,1.732868,1.732868,1.732868,0.1,0,0.0,0.0,1.0,1371.0,1.0
144,2,2021-02-23_16h27.13.888,62,0.506831,0.506831,0.506831,0.1,0,0.0,0.0,-1.0,1243.0,0.0
145,2,2021-02-23_16h27.13.888,63,88.26713199999999,1.732868,1.732868,0.1,0,0.0,0.0,1.0,1066.0,1.0
146,2,2021-02-23_16h27.13.888,64,89.493169,0.506831,0.506831,0.1,0,0.0,0.0,-1.0,1273.0,0.0
147,2,2021-02-23_16h27.13.888,65,-1.732868,-1.732868,1.732868,0.1,0,0.0,0.0,-1.0,1132.0,1.0
148,2,2021-02-23_16h27.13.888,66,-89.493169,-0.506831,0.506831,0.1,0,0.0,0.0,-1.0,1870.0,1.0
149,2,2021-02-23_16h27.13.888,67,-88.26713199999999,-1.732868,1.732868,0.1,0,0.0,0.0,-1.0,1349.0,1.0
150,2,2021-02-23_16h27.13.888,68,89.493169,0.506831,0.506831,8.0,0,0.0,0.0,-1.0,2750.0,0.0
151,2,2021-02-23_16h27.13.888,69,1.732868,1.732868,1.732868,8.0,0,0.0,0.0,1.0,1510.0,1.0
152,2,2021-02-23_16h27.13.888,70,-88.26713199999999,-1.732868,1.732868,8.0,0,0.0,0.0,-1.0,800.9999999999999,1.0
153,2,2021-02-23_16h27.13.888,71,0.506831,0.506831,0.506831,8.0,0,0.0,0.0,-1.0,1711.0,0.0
154,2,2021-02-23_16h27.13.888,72,-89.493169,-0.506831,0.506831,8.0,0,0.0,0.0,-1.0,883.0,1.0
155,2,2021-02-23_16h27.13.888,73,-1.732868,-1.732868,1.732868,8.0,0,0.0,0.0,-1.0,869.0000000000001,1.0
156,2,2021-02-23_16h27.13.888,74,-0.506831,-0.506831,0.506831,8.0,0,0.0,0.0,-1.0,1750.0,1.0
157,2,2021-02-23_16h27.13.888,75,88.26713199999999,1.732868,1.732868,8.0,0,0.0,0.0,1.0,2426.0,1.0
158,2,2021-02-23_16h27.13.888,76,1.732868,1.732868,1.732868,0.1,0,0.0,0.0,1.0,1127.0,1.0
159,2,2021-02-23_16h27.13.888,77,-89.493169,-0.506831,0.506831,0.1,0,0.0,0.0,-1.0,1172.0,1.0
160,2,2021-02-23_16h27.13.888,78,88.26713199999999,1.732868,1.732868,0.1,0,0.0,0.0,1.0,1829.0,1.0
161,2,2021-02-23_16h27.13.888,79,0.506831,0.506831,0.506831,0.1,0,0.0,0.0,-1.0,1241.0,0.0
162,2,2021-02-23_16h27.13.888,80,89.493169,0.506831,0.506831,0.1,0,0.0,0.0,1.0,1364.0,1.0
163,2,2021-02-23_16h27.13.888,81,-88.26713199999999,-1.732868,1.732868,0.1,0,0.0,0.0,-1.0,1129.0,1.0
164,2,2021-02-23_16h27.13.888,82,-0.506831,-0.506831,0.506831,0.1,0,0.0,0.0,-1.0,1635.0,1.0
165,2,2021-02-23_16h27.13.888,83,-1.732868,-1.732868,1.732868,0.1,0,0.0,0.0,-1.0,1810.0,1.0
166,3,2021-02-23_17h02.25.824,1,-89.493169,-0.506831,0.506831,8.0,1,0.5,0.5,-1.0,2215.0,1.0
167,3,2021-02-23_17h02.25.824,2,-1.732868,-1.732868,1.732868,8.0,1,0.5,0.5,-1.0,1826.0,1.0
168,3,2021-02-23_17h02.25.824,3,-0.506831,-0.506831,0.506831,8.0,1,0.5,0.5,-1.0,1471.0,1.0
169,3,2021-02-23_17h02.25.824,4,0.506831,0.506831,0.506831,8.0,-1,0.5,0.4,1.0,1746.0,1.0
170,3,2021-02-23_17h02.25.824,5,-88.26713199999999,-1.732868,1.732868,8.0,1,0.5,0.4,-1.0,1270.0,1.0
171,3,2021-02-23_17h02.25.824,6,89.493169,0.506831,0.506831,8.0,-1,0.5,0.4,-1.0,4415.0,0.0
172,3,2021-02-23_17h02.25.824,7,88.26713199999999,1.732868,1.732868,8.0,-1,0.5,0.4,1.0,2617.0,1.0
173,3,2021-02-23_17h02.25.824,8,1.732868,1.732868,1.732868,8.0,-1,0.5,0.4,-1.0,4454.0,0.0
174,3,2021-02-23_17h02.25.824,9,-88.26713199999999,-1.732868,1.732868,0.1,1,0.5,0.4,1.0,2183.0,0.0
175,3,2021-02-23_17h02.25.824,10,1.732868,1.732868,1.732868,0.1,-1,0.5,0.4,-1.0,1934.0,0.0
176,3,2021-02-23_17h02.25.824,11,-0.506831,-0.506831,0.506831,0.1,1,0.5,0.4,-1.0,1822.0,1.0
177,3,2021-02-23_17h02.25.824,12,88.26713199999999,1.732868,1.732868,0.1,-1,0.5,0.3,-1.0,3367.0,0.0
178,3,2021-02-23_17h02.25.824,13,-1.732868,-1.732868,1.732868,0.1,1,0.5,0.3,-1.0,1401.0,1.0
179,3,2021-02-23_17h02.25.824,14,89.493169,0.506831,0.506831,0.1,-1,0.5,0.2,-1.0,1807.0,0.0
180,3,2021-02-23_17h02.25.824,15,-89.493169,-0.506831,0.506831,0.1,1,0.5,0.2,-1.0,1443.0,1.0
181,3,2021-02-23_17h02.25.824,16,0.506831,0.506831,0.506831,0.1,-1,0.5,0.2,-1.0,1517.0,0.0
182,3,2021-02-23_17h02.25.824,17,-1.732868,-1.732868,1.732868,8.0,-1,0.5,0.1,-1.0,2491.0,1.0
183,3,2021-02-23_17h02.25.824,18,-88.26713199999999,-1.732868,1.732868,8.0,-1,0.5,0.1,-1.0,1252.0,1.0
184,3,2021-02-23_17h02.25.824,19,1.732868,1.732868,1.732868,8.0,1,0.5,0.1,1.0,1493.0,1.0
185,3,2021-02-23_17h02.25.824,20,0.506831,0.506831,0.506831,8.0,1,0.5,0.1,1.0,1133.0,1.0
186,3,2021-02-23_17h02.25.824,21,89.493169,0.506831,0.506831,8.0,1,0.5,0.1,1.0,1393.0,1.0
187,3,2021-02-23_17h02.25.824,22,88.26713199999999,1.732868,1.732868,8.0,1,0.5,0.1,1.0,1807.0,1.0
188,3,2021-02-23_17h02.25.824,23,-0.506831,-0.506831,0.506831,8.0,-1,0.5,0.1,1.0,2512.0,0.0
189,3,2021-02-23_17h02.25.824,24,-89.493169,-0.506831,0.506831,8.0,-1,0.5,0.1,1.0,1784.0,0.0
190,3,2021-02-23_17h02.25.824,25,1.732868,1.732868,1.732868,0.1,1,0.5,0.1,1.0,1078.0,1.0
191,3,2021-02-23_17h02.25.824,26,-0.506831,-0.506831,0.506831,0.1,-1,0.5,0.1,1.0,1017.0,0.0
192,3,2021-02-23_17h02.25.824,27,88.26713199999999,1.732868,1.732868,0.1,1,0.5,0.1,1.0,983.0,1.0
193,3,2021-02-23_17h02.25.824,28,-1.732868,-1.732868,1.732868,0.1,-1,0.5,0.1,-1.0,1346.0,1.0
194,3,2021-02-23_17h02.25.824,29,0.506831,0.506831,0.506831,0.1,1,0.5,0.1,1.0,1351.0,1.0
195,3,2021-02-23_17h02.25.824,30,-89.493169,-0.506831,0.506831,0.1,-1,0.5,0.1,-1.0,1977.0,1.0
196,3,2021-02-23_17h02.25.824,31,89.493169,0.506831,0.506831,0.1,1,0.5,0.1,1.0,909.0,1.0
197,3,2021-02-23_17h02.25.824,32,-88.26713199999999,-1.732868,1.732868,0.1,-1,0.5,2.77556e-17,-1.0,1433.0,1.0
198,3,2021-02-23_17h02.25.824,33,-89.493169,-0.506831,0.506831,8.0,-1,25.0,25.0,-1.0,1386.0,1.0
199,3,2021-02-23_17h02.25.824,34,0.506831,0.506831,0.506831,8.0,1,25.0,25.0,-1.0,1886.0,0.0
200,3,2021-02-23_17h02.25.824,35,1.732868,1.732868,1.732868,8.0,1,25.0,25.0,1.0,1055.0,1.0
201,3,2021-02-23_17h02.25.824,36,-88.26713199999999,-1.732868,1.732868,8.0,-1,25.0,25.0,-1.0,1488.0,1.0
202,3,2021-02-23_17h02.25.824,37,-1.732868,-1.732868,1.732868,8.0,-1,25.0,20.0,-1.0,1111.0,1.0
203,3,2021-02-23_17h02.25.824,38,88.26713199999999,1.732868,1.732868,8.0,1,25.0,20.0,-1.0,1943.0,0.0
204,3,2021-02-23_17h02.25.824,39,89.493169,0.506831,0.506831,8.0,1,25.0,20.0,1.0,1817.0,1.0
205,3,2021-02-23_17h02.25.824,40,-0.506831,-0.506831,0.506831,8.0,-1,25.0,20.0,-1.0,1408.0,1.0
206,3,2021-02-23_17h02.25.824,41,0.506831,0.506831,0.506831,8.0,-1,25.0,20.0,-1.0,2436.0,0.0
207,3,2021-02-23_17h02.25.824,42,1.732868,1.732868,1.732868,8.0,-1,25.0,20.0,1.0,943.0,1.0
208,3,2021-02-23_17h02.25.824,43,89.493169,0.506831,0.506831,8.0,-1,25.0,15.0,1.0,2335.0,1.0
209,3,2021-02-23_17h02.25.824,44,88.26713199999999,1.732868,1.732868,8.0,-1,25.0,15.0,1.0,1851.0,1.0
210,3,2021-02-23_17h02.25.824,45,-89.493169,-0.506831,0.506831,8.0,1,25.0,15.0,-1.0,1852.0,1.0
211,3,2021-02-23_17h02.25.824,46,-0.506831,-0.506831,0.506831,8.0,1,25.0,15.0,-1.0,2171.0,1.0
212,3,2021-02-23_17h02.25.824,47,-88.26713199999999,-1.732868,1.732868,8.0,1,25.0,15.0,-1.0,1436.0,1.0
213,3,2021-02-23_17h02.25.824,48,-1.732868,-1.732868,1.732868,8.0,1,25.0,15.0,1.0,1777.0,0.0
214,3,2021-02-23_17h02.25.824,49,88.26713199999999,1.732868,1.732868,0.1,1,25.0,15.0,1.0,1492.0,1.0
215,3,2021-02-23_17h02.25.824,50,-88.26713199999999,-1.732868,1.732868,0.1,-1,25.0,15.0,-1.0,2072.0,1.0
216,3,2021-02-23_17h02.25.824,51,0.506831,0.506831,0.506831,0.1,1,25.0,15.0,1.0,1401.0,1.0
217,3,2021-02-23_17h02.25.824,52,-1.732868,-1.732868,1.732868,0.1,-1,25.0,15.0,-1.0,3667.0,1.0
218,3,2021-02-23_17h02.25.824,53,-0.506831,-0.506831,0.506831,0.1,-1,25.0,15.0,1.0,1218.0,0.0
219,3,2021-02-23_17h02.25.824,54,89.493169,0.506831,0.506831,0.1,1,25.0,15.0,-1.0,2217.0,0.0
220,3,2021-02-23_17h02.25.824,55,-89.493169,-0.506831,0.506831,0.1,-1,25.0,15.0,-1.0,1002.0,1.0
221,3,2021-02-23_17h02.25.824,56,1.732868,1.732868,1.732868,0.1,1,25.0,15.0,1.0,1378.0,1.0
222,3,2021-02-23_17h02.25.824,57,1.732868,1.732868,1.732868,0.1,-1,25.0,15.0,1.0,978.0,1.0
223,3,2021-02-23_17h02.25.824,58,-89.493169,-0.506831,0.506831,0.1,1,25.0,15.0,-1.0,1579.0,1.0
224,3,2021-02-23_17h02.25.824,59,-1.732868,-1.732868,1.732868,0.1,1,25.0,15.0,-1.0,1117.0,1.0
225,3,2021-02-23_17h02.25.824,60,-88.26713199999999,-1.732868,1.732868,0.1,1,25.0,15.0,1.0,1204.0,0.0
226,3,2021-02-23_17h02.25.824,61,0.506831,0.506831,0.506831,0.1,-1,25.0,15.0,-1.0,1541.0,0.0
227,3,2021-02-23_17h02.25.824,62,-0.506831,-0.506831,0.506831,0.1,1,25.0,15.0,-1.0,1783.0,1.0
228,3,2021-02-23_17h02.25.824,63,89.493169,0.506831,0.506831,0.1,-1,25.0,15.0,-1.0,1834.0,0.0
229,3,2021-02-23_17h02.25.824,64,88.26713199999999,1.732868,1.732868,0.1,-1,25.0,10.0,1.0,1644.0,1.0
230,3,2021-02-23_17h02.25.824,65,88.26713199999999,1.732868,1.732868,0.1,0,0.0,0.0,-1.0,452.9999999999999,0.0
231,3,2021-02-23_17h02.25.824,66,0.506831,0.506831,0.506831,0.1,0,0.0,0.0,1.0,285.0,1.0
232,3,2021-02-23_17h02.25.824,67,-88.26713199999999,-1.732868,1.732868,0.1,0,0.0,0.0,-1.0,1517.0,1.0
233,3,2021-02-23_17h02.25.824,68,-0.506831,-0.506831,0.506831,0.1,0,0.0,0.0,1.0,1403.0,0.0
234,3,2021-02-23_17h02.25.824,69,-89.493169,-0.506831,0.506831,0.1,0,0.0,0.0,-1.0,1240.0,1.0
235,3,2021-02-23_17h02.25.824,70,1.732868,1.732868,1.732868,0.1,0,0.0,0.0,1.0,1155.0,1.0
236,3,2021-02-23_17h02.25.824,71,-1.732868,-1.732868,1.732868,0.1,0,0.0,0.0,-1.0,1223.0,1.0
237,3,2021-02-23_17h02.25.824,72,89.493169,0.506831,0.506831,0.1,0,0.0,0.0,1.0,1285.0,1.0
238,3,2021-02-23_17h02.25.824,73,88.26713199999999,1.732868,1.732868,8.0,0,0.0,0.0,1.0,1212.0,1.0
239,3,2021-02-23_17h02.25.824,74,-0.506831,-0.506831,0.506831,8.0,0,0.0,0.0,-1.0,1109.0,1.0
240,3,2021-02-23_17h02.25.824,75,-88.26713199999999,-1.732868,1.732868,8.0,0,0.0,0.0,-1.0,1190.0,1.0
241,3,2021-02-23_17h02.25.824,76,89.493169,0.506831,0.506831,8.0,0,0.0,0.0,-1.0,1784.0,0.0
242,3,2021-02-23_17h02.25.824,77,1.732868,1.732868,1.732868,8.0,0,0.0,0.0,-1.0,1481.0,0.0
243,3,2021-02-23_17h02.25.824,78,-1.732868,-1.732868,1.732868,8.0,0,0.0,0.0,-1.0,1292.0,1.0
244,3,2021-02-23_17h02.25.824,79,0.506831,0.506831,0.506831,8.0,0,0.0,0.0,-1.0,1356.0,0.0
245,3,2021-02-23_17h02.25.824,80,-89.493169,-0.506831,0.506831,8.0,0,0.0,0.0,-1.0,1482.0,1.0
246,3,2021-02-23_17h02.25.824,81,-1.732868,-1.732868,1.732868,8.0,0,0.0,0.0,-1.0,1052.0,1.0
247,3,2021-02-23_17h02.25.824,82,-89.493169,-0.506831,0.506831,8.0,0,0.0,0.0,-1.0,1370.0,1.0
248,3,2021-02-23_17h02.25.824,83,1.732868,1.732868,1.732868,8.0,0,0.0,0.0,1.0,1938.0,1.0
249,3,2021-02-23_17h02.25.824,84,89.493169,0.506831,0.506831,8.0,0,0.0,0.0,1.0,1401.0,1.0
250,3,2021-02-23_17h02.25.824,85,-0.506831,-0.506831,0.506831,8.0,0,0.0,0.0,-1.0,2694.0,1.0
251,3,2021-02-23_17h02.25.824,86,88.26713199999999,1.732868,1.732868,8.0,0,0.0,0.0,1.0,1534.0,1.0
252,3,2021-02-23_17h02.25.824,87,0.506831,0.506831,0.506831,8.0,0,0.0,0.0,-1.0,1517.0,0.0
253,3,2021-02-23_17h02.25.824,88,-88.26713199999999,-1.732868,1.732868,8.0,0,0.0,0.0,-1.0,1213.0,1.0
254,3,2021-02-23_17h02.25.824,89,-1.732868,-1.732868,1.732868,0.1,0,0.0,0.0,-1.0,875.9999999999999,1.0
255,3,2021-02-23_17h02.25.824,90,-89.493169,-0.506831,0.506831,0.1,0,0.0,0.0,-1.0,1417.0,1.0
256,3,2021-02-23_17h02.25.824,91,0.506831,0.506831,0.506831,0.1,0,0.0,0.0,1.0,1182.0,1.0
257,3,2021-02-23_17h02.25.824,92,-88.26713199999999,-1.732868,1.732868,0.1,0,0.0,0.0,-1.0,1297.0,1.0
258,3,2021-02-23_17h02.25.824,93,89.493169,0.506831,0.506831,0.1,0,0.0,0.0,1.0,1601.0,1.0
259,3,2021-02-23_17h02.25.824,94,1.732868,1.732868,1.732868,0.1,0,0.0,0.0,1.0,1160.0,1.0
260,3,2021-02-23_17h02.25.824,95,-0.506831,-0.506831,0.506831,0.1,0,0.0,0.0,-1.0,2072.0,1.0
261,3,2021-02-23_17h02.25.824,96,88.26713199999999,1.732868,1.732868,0.1,0,0.0,0.0,-1.0,2023.0,0.0
262,4,2021-02-23_15h06.36.477,1,1.732868,1.732868,1.732868,8.0,-1,0.5,0.5,1.0,2077.0,1.0
263,4,2021-02-23_15h06.36.477,2,-89.493169,-0.506831,0.506831,8.0,1,0.5,0.5,-1.0,1676.0,1.0
264,4,2021-02-23_15h06.36.477,3,-1.732868,-1.732868,1.732868,8.0,1,0.5,0.5,-1.0,1344.0,1.0
265,4,2021-02-23_15h06.36.477,4,-88.26713199999999,-1.732868,1.732868,8.0,1,0.5,0.5,-1.0,1173.0,1.0
266,4,2021-02-23_15h06.36.477,5,-0.506831,-0.506831,0.506831,8.0,1,0.5,0.5,1.0,1751.0,0.0
267,4,2021-02-23_15h06.36.477,6,89.493169,0.506831,0.506831,8.0,-1,0.5,0.5,-1.0,1268.0,0.0
268,4,2021-02-23_15h06.36.477,7,88.26713199999999,1.732868,1.732868,8.0,-1,0.5,0.5,1.0,5500.0,1.0
269,4,2021-02-23_15h06.36.477,8,0.506831,0.506831,0.506831,8.0,-1,0.5,0.4,1.0,4593.0,1.0
270,4,2021-02-23_15h06.36.477,9,-88.26713199999999,-1.732868,1.732868,0.1,-1,0.5,0.4,-1.0,1251.0,1.0
271,4,2021-02-23_15h06.36.477,10,-0.506831,-0.506831,0.506831,0.1,-1,0.5,0.3,1.0,1633.0,0.0
272,4,2021-02-23_15h06.36.477,11,-1.732868,-1.732868,1.732868,0.1,-1,0.5,0.3,1.0,2110.0,0.0
273,4,2021-02-23_15h06.36.477,12,88.26713199999999,1.732868,1.732868,0.1,1,0.5,0.3,1.0,2066.0,1.0
274,4,2021-02-23_15h06.36.477,13,-89.493169,-0.506831,0.506831,0.1,-1,0.5,0.3,-1.0,968.0,1.0
275,4,2021-02-23_15h06.36.477,14,89.493169,0.506831,0.506831,0.1,1,0.5,0.3,1.0,3327.0,1.0
276,4,2021-02-23_15h06.36.477,15,0.506831,0.506831,0.506831,0.1,1,0.5,0.3,1.0,1151.0,1.0
277,4,2021-02-23_15h06.36.477,16,1.732868,1.732868,1.732868,0.1,1,0.5,0.3,1.0,758.0,1.0
278,4,2021-02-23_15h06.36.477,17,-1.732868,-1.732868,1.732868,0.1,1,0.5,0.3,-1.0,1211.0,1.0
279,4,2021-02-23_15h06.36.477,18,0.506831,0.506831,0.506831,0.1,-1,0.5,0.2,1.0,1119.0,1.0
280,4,2021-02-23_15h06.36.477,19,-0.506831,-0.506831,0.506831,0.1,1,0.5,0.2,1.0,1901.0,0.0
281,4,2021-02-23_15h06.36.477,20,89.493169,0.506831,0.506831,0.1,-1,0.5,0.2,-1.0,3094.0,0.0
282,4,2021-02-23_15h06.36.477,21,1.732868,1.732868,1.732868,0.1,-1,0.5,0.1,1.0,784.0,1.0
283,4,2021-02-23_15h06.36.477,22,88.26713199999999,1.732868,1.732868,0.1,-1,0.5,0.1,1.0,1200.0,1.0
284,4,2021-02-23_15h06.36.477,23,-88.26713199999999,-1.732868,1.732868,0.1,1,0.5,0.1,-1.0,1127.0,1.0
285,4,2021-02-23_15h06.36.477,24,-89.493169,-0.506831,0.506831,0.1,1,0.5,0.1,-1.0,1372.0,1.0
286,4,2021-02-23_15h06.36.477,25,0.506831,0.506831,0.506831,8.0,1,0.5,0.1,1.0,2461.0,1.0
287,4,2021-02-23_15h06.36.477,26,88.26713199999999,1.732868,1.732868,8.0,1,0.5,0.1,1.0,973.0,1.0
288,4,2021-02-23_15h06.36.477,27,-88.26713199999999,-1.732868,1.732868,8.0,-1,0.5,2.77556e-17,-1.0,2484.0,1.0
289,4,2021-02-23_15h06.36.477,28,-89.493169,-0.506831,0.506831,8.0,1,25.0,25.0,-1.0,1128.0,1.0
290,4,2021-02-23_15h06.36.477,29,-88.26713199999999,-1.732868,1.732868,8.0,1,25.0,25.0,-1.0,941.0,1.0
291,4,2021-02-23_15h06.36.477,30,-0.506831,-0.506831,0.506831,8.0,1,25.0,25.0,-1.0,2144.0,1.0
292,4,2021-02-23_15h06.36.477,31,-1.732868,-1.732868,1.732868,8.0,1,25.0,25.0,-1.0,1276.0,1.0
293,4,2021-02-23_15h06.36.477,32,1.732868,1.732868,1.732868,8.0,-1,25.0,25.0,1.0,934.0,1.0
294,4,2021-02-23_15h06.36.477,33,0.506831,0.506831,0.506831,8.0,-1,25.0,25.0,1.0,3186.0,1.0
295,4,2021-02-23_15h06.36.477,34,88.26713199999999,1.732868,1.732868,8.0,-1,25.0,25.0,1.0,1202.0,1.0
296,4,2021-02-23_15h06.36.477,35,89.493169,0.506831,0.506831,8.0,-1,25.0,20.0,1.0,1091.0,1.0
297,4,2021-02-23_15h06.36.477,36,-89.493169,-0.506831,0.506831,8.0,-1,25.0,20.0,1.0,2957.0,0.0
298,4,2021-02-23_15h06.36.477,37,89.493169,0.506831,0.506831,8.0,1,25.0,20.0,1.0,1085.0,1.0
299,4,2021-02-23_15h06.36.477,38,-1.732868,-1.732868,1.732868,8.0,-1,25.0,15.0,-1.0,1372.0,1.0
300,4,2021-02-23_15h06.36.477,39,1.732868,1.732868,1.732868,8.0,1,25.0,15.0,1.0,1322.0,1.0
301,4,2021-02-23_15h06.36.477,40,-88.26713199999999,-1.732868,1.732868,8.0,-1,25.0,15.0,-1.0,1237.0,1.0
302,4,2021-02-23_15h06.36.477,41,0.506831,0.506831,0.506831,8.0,1,25.0,15.0,1.0,1908.0,1.0
303,4,2021-02-23_15h06.36.477,42,-0.506831,-0.506831,0.506831,8.0,-1,25.0,15.0,-1.0,1937.0,1.0
304,4,2021-02-23_15h06.36.477,43,88.26713199999999,1.732868,1.732868,8.0,1,25.0,15.0,1.0,1441.0,1.0
305,4,2021-02-23_15h06.36.477,44,-0.506831,-0.506831,0.506831,0.1,1,25.0,15.0,1.0,1029.0,0.0
306,4,2021-02-23_15h06.36.477,45,-88.26713199999999,-1.732868,1.732868,0.1,1,25.0,15.0,-1.0,927.0,1.0
307,4,2021-02-23_15h06.36.477,46,1.732868,1.732868,1.732868,0.1,-1,25.0,15.0,1.0,924.0,1.0
308,4,2021-02-23_15h06.36.477,47,89.493169,0.506831,0.506831,0.1,-1,25.0,10.0,-1.0,1535.0,0.0
309,4,2021-02-23_15h06.36.477,48,0.506831,0.506831,0.506831,0.1,-1,25.0,5.0,1.0,1088.0,1.0
310,4,2021-02-23_15h06.36.477,49,88.26713199999999,1.732868,1.732868,0.1,-1,25.0,0.0,1.0,875.0,1.0
311,4,2021-02-23_15h06.36.477,50,-1.732868,-1.732868,1.732868,0.1,0,0.0,0.0,-1.0,839.0000000000001,1.0
312,4,2021-02-23_15h06.36.477,51,88.26713199999999,1.732868,1.732868,0.1,0,0.0,0.0,1.0,772.0,1.0
313,4,2021-02-23_15h06.36.477,52,-88.26713199999999,-1.732868,1.732868,0.1,0,0.0,0.0,-1.0,889.0,1.0
314,4,2021-02-23_15h06.36.477,53,-0.506831,-0.506831,0.506831,0.1,0,0.0,0.0,-1.0,1011.0,1.0
315,4,2021-02-23_15h06.36.477,54,0.506831,0.506831,0.506831,0.1,0,0.0,0.0,1.0,847.0,1.0
316,4,2021-02-23_15h06.36.477,55,-89.493169,-0.506831,0.506831,0.1,0,0.0,0.0,-1.0,726.0,1.0
317,4,2021-02-23_15h06.36.477,56,89.493169,0.506831,0.506831,0.1,0,0.0,0.0,1.0,618.0,1.0
318,4,2021-02-23_15h06.36.477,57,1.732868,1.732868,1.732868,0.1,0,0.0,0.0,1.0,856.0,1.0
319,4,2021-02-23_15h06.36.477,58,-1.732868,-1.732868,1.732868,0.1,0,0.0,0.0,-1.0,1002.0,1.0
320,4,2021-02-23_15h06.36.477,59,1.732868,1.732868,1.732868,0.1,0,0.0,0.0,-1.0,1634.0,0.0
321,4,2021-02-23_15h06.36.477,60,88.26713199999999,1.732868,1.732868,0.1,0,0.0,0.0,1.0,1601.0,1.0
322,4,2021-02-23_15h06.36.477,61,89.493169,0.506831,0.506831,0.1,0,0.0,0.0,1.0,1113.0,1.0
323,4,2021-02-23_15h06.36.477,62,-88.26713199999999,-1.732868,1.732868,0.1,0,0.0,0.0,-1.0,733.0,1.0
324,4,2021-02-23_15h06.36.477,63,0.506831,0.506831,0.506831,0.1,0,0.0,0.0,-1.0,1051.0,0.0
325,4,2021-02-23_15h06.36.477,64,-0.506831,-0.506831,0.506831,0.1,0,0.0,0.0,1.0,856.0,0.0
326,4,2021-02-23_15h06.36.477,65,-89.493169,-0.506831,0.506831,0.1,0,0.0,0.0,-1.0,1222.0,1.0
327,4,2021-02-23_15h06.36.477,66,1.732868,1.732868,1.732868,8.0,0,0.0,0.0,1.0,660.0,1.0
328,4,2021-02-23_15h06.36.477,67,-1.732868,-1.732868,1.732868,8.0,0,0.0,0.0,1.0,1018.0,0.0
329,4,2021-02-23_15h06.36.477,68,-0.506831,-0.506831,0.506831,8.0,0,0.0,0.0,1.0,1033.0,0.0
330,4,2021-02-23_15h06.36.477,69,0.506831,0.506831,0.506831,8.0,0,0.0,0.0,-1.0,768.0,0.0
331,4,2021-02-23_15h06.36.477,70,-89.493169,-0.506831,0.506831,8.0,0,0.0,0.0,-1.0,2807.0,1.0
332,4,2021-02-23_15h06.36.477,71,89.493169,0.506831,0.506831,8.0,0,0.0,0.0,-1.0,2100.0,0.0
333,4,2021-02-23_15h06.36.477,72,88.26713199999999,1.732868,1.732868,8.0,0,0.0,0.0,1.0,636.0,1.0
334,4,2021-02-23_15h06.36.477,73,-88.26713199999999,-1.732868,1.732868,8.0,0,0.0,0.0,-1.0,705.0,1.0
335,4,2021-02-23_15h06.36.477,74,1.732868,1.732868,1.732868,8.0,0,0.0,0.0,1.0,742.0,1.0
336,4,2021-02-23_15h06.36.477,75,-88.26713199999999,-1.732868,1.732868,8.0,0,0.0,0.0,-1.0,721.0,1.0
337,4,2021-02-23_15h06.36.477,76,89.493169,0.506831,0.506831,8.0,0,0.0,0.0,-1.0,767.0,0.0
338,4,2021-02-23_15h06.36.477,77,-1.732868,-1.732868,1.732868,8.0,0,0.0,0.0,-1.0,1542.0,1.0
339,4,2021-02-23_15h06.36.477,78,0.506831,0.506831,0.506831,8.0,0,0.0,0.0,1.0,677.9999999999999,1.0
340,4,2021-02-23_15h06.36.477,79,-0.506831,-0.506831,0.506831,8.0,0,0.0,0.0,-1.0,1190.0,1.0
341,4,2021-02-23_15h06.36.477,80,88.26713199999999,1.732868,1.732868,8.0,0,0.0,0.0,-1.0,1118.0,0.0
342,4,2021-02-23_15h06.36.477,81,-89.493169,-0.506831,0.506831,8.0,0,0.0,0.0,-1.0,953.0,1.0
343,5,2021-02-23_15h24.35.173,1,-0.506831,-0.506831,0.506831,0.1,1,25.0,25.0,-1.0,1009.0,1.0
344,5,2021-02-23_15h24.35.173,2,-89.493169,-0.506831,0.506831,0.1,1,25.0,25.0,-1.0,1417.0,1.0
345,5,2021-02-23_15h24.35.173,3,-1.732868,-1.732868,1.732868,0.1,1,25.0,25.0,-1.0,1475.0,1.0
346,5,2021-02-23_15h24.35.173,4,-88.26713199999999,-1.732868,1.732868,0.1,1,25.0,25.0,1.0,802.9999999999999,0.0
347,5,2021-02-23_15h24.35.173,5,0.506831,0.506831,0.506831,0.1,-1,25.0,25.0,-1.0,1290.0,0.0
348,5,2021-02-23_15h24.35.173,6,1.732868,1.732868,1.732868,0.1,-1,25.0,25.0,1.0,1217.0,1.0
349,5,2021-02-23_15h24.35.173,7,89.493169,0.506831,0.506831,0.1,-1,25.0,25.0,-1.0,2384.0,0.0
350,5,2021-02-23_15h24.35.173,8,88.26713199999999,1.732868,1.732868,0.1,-1,25.0,25.0,1.0,1205.0,1.0
351,5,2021-02-23_15h24.35.173,9,0.506831,0.506831,0.506831,8.0,1,25.0,25.0,1.0,2434.0,1.0
352,5,2021-02-23_15h24.35.173,10,-1.732868,-1.732868,1.732868,8.0,-1,25.0,25.0,-1.0,1833.0,1.0
353,5,2021-02-23_15h24.35.173,11,-0.506831,-0.506831,0.506831,8.0,-1,25.0,25.0,-1.0,1754.0,1.0
354,5,2021-02-23_15h24.35.173,12,89.493169,0.506831,0.506831,8.0,1,25.0,25.0,-1.0,1556.0,0.0
355,5,2021-02-23_15h24.35.173,13,1.732868,1.732868,1.732868,8.0,1,25.0,25.0,1.0,1205.0,1.0
356,5,2021-02-23_15h24.35.173,14,88.26713199999999,1.732868,1.732868,8.0,1,25.0,25.0,1.0,1089.0,1.0
357,5,2021-02-23_15h24.35.173,15,-88.26713199999999,-1.732868,1.732868,8.0,-1,25.0,20.0,1.0,900.0,0.0
358,5,2021-02-23_15h24.35.173,16,-89.493169,-0.506831,0.506831,8.0,-1,25.0,20.0,-1.0,2067.0,1.0
359,5,2021-02-23_15h24.35.173,17,-1.732868,-1.732868,1.732868,0.1,-1,25.0,15.0,-1.0,1802.0,1.0
360,5,2021-02-23_15h24.35.173,18,-88.26713199999999,-1.732868,1.732868,0.1,-1,25.0,15.0,1.0,2101.0,0.0
361,5,2021-02-23_15h24.35.173,19,1.732868,1.732868,1.732868,0.1,1,25.0,15.0,1.0,1088.0,1.0
362,5,2021-02-23_15h24.35.173,20,88.26713199999999,1.732868,1.732868,0.1,1,25.0,15.0,1.0,1102.0,1.0
363,5,2021-02-23_15h24.35.173,21,89.493169,0.506831,0.506831,0.1,1,25.0,15.0,-1.0,2257.0,0.0
364,5,2021-02-23_15h24.35.173,22,0.506831,0.506831,0.506831,0.1,1,25.0,15.0,-1.0,2350.0,0.0
365,5,2021-02-23_15h24.35.173,23,-0.506831,-0.506831,0.506831,0.1,-1,25.0,15.0,1.0,1634.0,0.0
366,5,2021-02-23_15h24.35.173,24,-89.493169,-0.506831,0.506831,0.1,-1,25.0,15.0,1.0,1355.0,0.0
367,5,2021-02-23_15h24.35.173,25,-1.732868,-1.732868,1.732868,8.0,1,25.0,15.0,-1.0,1867.0,1.0
368,5,2021-02-23_15h24.35.173,26,0.506831,0.506831,0.506831,8.0,-1,25.0,10.0,-1.0,2193.0,0.0
369,5,2021-02-23_15h24.35.173,27,89.493169,0.506831,0.506831,8.0,-1,25.0,5.0,1.0,2068.0,1.0
370,5,2021-02-23_15h24.35.173,28,-0.506831,-0.506831,0.506831,8.0,1,25.0,5.0,-1.0,1234.0,1.0
371,5,2021-02-23_15h24.35.173,29,88.26713199999999,1.732868,1.732868,8.0,-1,25.0,5.0,-1.0,1784.0,0.0
372,5,2021-02-23_15h24.35.173,30,-88.26713199999999,-1.732868,1.732868,8.0,1,25.0,5.0,-1.0,1801.0,1.0
373,5,2021-02-23_15h24.35.173,31,-89.493169,-0.506831,0.506831,8.0,1,25.0,5.0,-1.0,1735.0,1.0
374,5,2021-02-23_15h24.35.173,32,1.732868,1.732868,1.732868,8.0,-1,25.0,5.0,1.0,1251.0,1.0
375,5,2021-02-23_15h24.35.173,33,-1.732868,-1.732868,1.732868,8.0,0,0.0,0.0,-1.0,2407.0,1.0
376,5,2021-02-23_15h24.35.173,34,-0.506831,-0.506831,0.506831,8.0,0,0.0,0.0,-1.0,1720.0,1.0
377,5,2021-02-23_15h24.35.173,35,-88.26713199999999,-1.732868,1.732868,8.0,0,0.0,0.0,-1.0,1838.0,1.0
378,5,2021-02-23_15h24.35.173,36,1.732868,1.732868,1.732868,8.0,0,0.0,0.0,-1.0,2367.0,0.0
379,5,2021-02-23_15h24.35.173,37,89.493169,0.506831,0.506831,8.0,0,0.0,0.0,-1.0,1737.0,0.0
380,5,2021-02-23_15h24.35.173,38,88.26713199999999,1.732868,1.732868,8.0,0,0.0,0.0,1.0,1184.0,1.0
381,5,2021-02-23_15h24.35.173,39,-89.493169,-0.506831,0.506831,8.0,0,0.0,0.0,-1.0,1152.0,1.0
382,5,2021-02-23_15h24.35.173,40,0.506831,0.506831,0.506831,8.0,0,0.0,0.0,-1.0,2068.0,0.0
383,5,2021-02-23_15h24.35.173,41,-89.493169,-0.506831,0.506831,0.1,0,0.0,0.0,-1.0,2238.0,1.0
384,5,2021-02-23_15h24.35.173,42,89.493169,0.506831,0.506831,0.1,0,0.0,0.0,1.0,1217.0,1.0
385,5,2021-02-23_15h24.35.173,43,0.506831,0.506831,0.506831,0.1,0,0.0,0.0,-1.0,1639.0,0.0
386,5,2021-02-23_15h24.35.173,44,-0.506831,-0.506831,0.506831,0.1,0,0.0,0.0,1.0,1424.0,0.0
387,5,2021-02-23_15h24.35.173,45,-88.26713199999999,-1.732868,1.732868,0.1,0,0.0,0.0,-1.0,2707.0,1.0
388,5,2021-02-23_15h24.35.173,46,1.732868,1.732868,1.732868,0.1,0,0.0,0.0,1.0,955.0,1.0
389,5,2021-02-23_15h24.35.173,47,-1.732868,-1.732868,1.732868,0.1,0,0.0,0.0,-1.0,2767.0,1.0
390,5,2021-02-23_15h24.35.173,48,88.26713199999999,1.732868,1.732868,0.1,0,0.0,0.0,1.0,1701.0,1.0
391,5,2021-02-23_15h24.35.173,49,88.26713199999999,1.732868,1.732868,0.1,0,0.0,0.0,1.0,984.0000000000001,1.0
392,5,2021-02-23_15h24.35.173,50,-88.26713199999999,-1.732868,1.732868,0.1,0,0.0,0.0,-1.0,1968.0,1.0
393,5,2021-02-23_15h24.35.173,51,89.493169,0.506831,0.506831,0.1,0,0.0,0.0,1.0,734.0000000000001,1.0
394,5,2021-02-23_15h24.35.173,52,-89.493169,-0.506831,0.506831,0.1,0,0.0,0.0,-1.0,1835.0,1.0
395,5,2021-02-23_15h24.35.173,53,1.732868,1.732868,1.732868,0.1,0,0.0,0.0,1.0,2200.0,1.0
396,5,2021-02-23_15h24.35.173,54,-0.506831,-0.506831,0.506831,0.1,0,0.0,0.0,-1.0,1621.0,1.0
397,5,2021-02-23_15h24.35.173,55,-1.732868,-1.732868,1.732868,0.1,0,0.0,0.0,-1.0,2873.0,1.0
398,5,2021-02-23_15h24.35.173,56,0.506831,0.506831,0.506831,0.1,0,0.0,0.0,1.0,968.0,1.0
399,5,2021-02-23_15h24.35.173,57,-88.26713199999999,-1.732868,1.732868,8.0,0,0.0,0.0,-1.0,2239.0,1.0
400,5,2021-02-23_15h24.35.173,58,89.493169,0.506831,0.506831,8.0,0,0.0,0.0,1.0,3957.0,1.0
401,5,2021-02-23_15h24.35.173,59,-0.506831,-0.506831,0.506831,8.0,0,0.0,0.0,-1.0,1634.0,1.0
402,5,2021-02-23_15h24.35.173,60,88.26713199999999,1.732868,1.732868,8.0,0,0.0,0.0,1.0,936.0,1.0
403,5,2021-02-23_15h24.35.173,61,-89.493169,-0.506831,0.506831,8.0,0,0.0,0.0,1.0,1718.0,0.0
404,5,2021-02-23_15h24.35.173,62,-1.732868,-1.732868,1.732868,8.0,0,0.0,0.0,-1.0,1623.0,1.0
405,5,2021-02-23_15h24.35.173,63,0.506831,0.506831,0.506831,8.0,0,0.0,0.0,1.0,1618.0,1.0
406,5,2021-02-23_15h24.35.173,64,1.732868,1.732868,1.732868,8.0,0,0.0,0.0,-1.0,1318.0,0.0
407,5,2021-02-23_15h24.35.173,65,1.732868,1.732868,1.732868,8.0,1,0.5,0.5,1.0,2957.0,1.0
408,5,2021-02-23_15h24.35.173,66,-0.506831,-0.506831,0.506831,8.0,-1,0.5,0.5,1.0,1290.0,0.0
409,5,2021-02-23_15h24.35.173,67,88.26713199999999,1.732868,1.732868,8.0,1,0.5,0.5,1.0,2051.0,1.0
410,5,2021-02-23_15h24.35.173,68,0.506831,0.506831,0.506831,8.0,1,0.5,0.5,-1.0,1868.0,0.0
411,5,2021-02-23_15h24.35.173,69,89.493169,0.506831,0.506831,8.0,1,0.5,0.5,1.0,1100.0,1.0
412,5,2021-02-23_15h24.35.173,70,-89.493169,-0.506831,0.506831,8.0,-1,0.5,0.5,1.0,3687.0,0.0
413,5,2021-02-23_15h24.35.173,71,-1.732868,-1.732868,1.732868,8.0,-1,0.5,0.5,-1.0,1501.0,1.0
414,5,2021-02-23_15h24.35.173,72,-88.26713199999999,-1.732868,1.732868,8.0,-1,0.5,0.5,1.0,1950.0,0.0
415,5,2021-02-23_15h24.35.173,73,1.732868,1.732868,1.732868,0.1,1,0.5,0.5,-1.0,2351.0,0.0
416,5,2021-02-23_15h24.35.173,74,0.506831,0.506831,0.506831,0.1,1,0.5,0.5,-1.0,2003.0,0.0
417,5,2021-02-23_15h24.35.173,75,88.26713199999999,1.732868,1.732868,0.1,1,0.5,0.5,1.0,2934.0,1.0
418,5,2021-02-23_15h24.35.173,76,89.493169,0.506831,0.506831,0.1,1,0.5,0.5,-1.0,2335.0,0.0
419,5,2021-02-23_15h24.35.173,77,-0.506831,-0.506831,0.506831,0.1,-1,0.5,0.5,1.0,1902.0,0.0
420,5,2021-02-23_15h24.35.173,78,-89.493169,-0.506831,0.506831,0.1,-1,0.5,0.5,1.0,2056.0,0.0
421,5,2021-02-23_15h24.35.173,79,-88.26713199999999,-1.732868,1.732868,0.1,-1,0.5,0.5,-1.0,1768.0,1.0
422,5,2021-02-23_15h24.35.173,80,-1.732868,-1.732868,1.732868,0.1,-1,0.5,0.4,1.0,1957.0,0.0
423,5,2021-02-23_15h24.35.173,81,-89.493169,-0.506831,0.506831,0.1,1,0.5,0.4,1.0,1525.0,0.0
424,5,2021-02-23_15h24.35.173,82,0.506831,0.506831,0.506831,0.1,-1,0.5,0.4,1.0,1467.0,1.0
425,5,2021-02-23_15h24.35.173,83,-88.26713199999999,-1.732868,1.732868,0.1,1,0.5,0.4,1.0,2139.0,0.0
426,5,2021-02-23_15h24.35.173,84,89.493169,0.506831,0.506831,0.1,-1,0.5,0.3,1.0,1384.0,1.0
427,5,2021-02-23_15h24.35.173,85,-0.506831,-0.506831,0.506831,0.1,1,0.5,0.3,1.0,1885.0,0.0
428,5,2021-02-23_15h24.35.173,86,1.732868,1.732868,1.732868,0.1,-1,0.5,0.3,-1.0,1251.0,0.0
429,5,2021-02-23_15h24.35.173,87,88.26713199999999,1.732868,1.732868,0.1,-1,0.5,0.3,1.0,3117.0,1.0
430,5,2021-02-23_15h24.35.173,88,-1.732868,-1.732868,1.732868,0.1,1,0.5,0.3,-1.0,2567.0,1.0
431,5,2021-02-23_15h24.35.173,89,-89.493169,-0.506831,0.506831,8.0,1,0.5,0.3,1.0,3434.0,0.0
432,5,2021-02-23_15h24.35.173,90,-88.26713199999999,-1.732868,1.732868,8.0,1,0.5,0.3,-1.0,3602.0,1.0
433,5,2021-02-23_15h24.35.173,91,0.506831,0.506831,0.506831,8.0,-1,0.5,0.2,1.0,6167.000000000001,1.0
434,5,2021-02-23_15h24.35.173,92,-0.506831,-0.506831,0.506831,8.0,1,0.5,0.2,1.0,2017.0,0.0
435,5,2021-02-23_15h24.35.173,93,89.493169,0.506831,0.506831,8.0,-1,0.5,0.1,1.0,1721.0,1.0
436,5,2021-02-23_15h24.35.173,94,88.26713199999999,1.732868,1.732868,8.0,-1,0.5,0.1,1.0,2067.0,1.0
437,5,2021-02-23_15h24.35.173,95,-1.732868,-1.732868,1.732868,8.0,1,0.5,0.1,-1.0,3273.0,1.0
438,5,2021-02-23_15h24.35.173,96,1.732868,1.732868,1.732868,8.0,-1,0.5,0.1,1.0,4051.0,1.0
439,6,2021-02-23_16h22.00.420,1,-88.26713199999999,-1.732868,1.732868,8.0,1,25.0,25.0,-1.0,1319.185,1.0
440,6,2021-02-23_16h22.00.420,2,-89.493169,-0.506831,0.506831,8.0,1,25.0,25.0,-1.0,1050.86,1.0
441,6,2021-02-23_16h22.00.420,3,89.493169,0.506831,0.506831,8.0,-1,25.0,25.0,-1.0,751.73,0.0
442,6,2021-02-23_16h22.00.420,4,88.26713199999999,1.732868,1.732868,8.0,-1,25.0,20.0,-1.0,846.7750000000001,0.0
443,6,2021-02-23_16h22.00.420,5,-1.732868,-1.732868,1.732868,8.0,1,25.0,20.0,-1.0,974.9399999999999,1.0
444,6,2021-02-23_16h22.00.420,6,0.506831,0.506831,0.506831,8.0,-1,25.0,20.0,1.0,718.4300000000001,1.0
445,6,2021-02-23_16h22.00.420,7,1.732868,1.732868,1.732868,8.0,-1,25.0,20.0,1.0,506.145,1.0
446,6,2021-02-23_16h22.00.420,8,-0.506831,-0.506831,0.506831,8.0,1,25.0,20.0,-1.0,1115.0,1.0
447,6,2021-02-23_16h22.00.420,9,88.26713199999999,1.732868,1.732868,8.0,1,25.0,20.0,-1.0,1199.92,0.0
448,6,2021-02-23_16h22.00.420,10,-89.493169,-0.506831,0.506831,8.0,-1,25.0,15.0,-1.0,642.0550000000001,1.0
449,6,2021-02-23_16h22.00.420,11,-1.732868,-1.732868,1.732868,8.0,-1,25.0,15.0,-1.0,874.6850000000001,1.0
450,6,2021-02-23_16h22.00.420,12,0.506831,0.506831,0.506831,8.0,1,25.0,15.0,1.0,583.26,1.0
451,6,2021-02-23_16h22.00.420,13,-0.506831,-0.506831,0.506831,8.0,-1,25.0,15.0,1.0,523.42,0.0
452,6,2021-02-23_16h22.00.420,14,-88.26713199999999,-1.732868,1.732868,8.0,-1,25.0,15.0,1.0,775.7049999999999,0.0
453,6,2021-02-23_16h22.00.420,15,89.493169,0.506831,0.506831,8.0,1,25.0,15.0,-1.0,1306.16,0.0
454,6,2021-02-23_16h22.00.420,16,1.732868,1.732868,1.732868,8.0,1,25.0,15.0,1.0,1034.64,1.0
455,6,2021-02-23_16h22.00.420,17,-1.732868,-1.732868,1.732868,0.1,1,25.0,15.0,-1.0,791.0050000000001,1.0
456,6,2021-02-23_16h22.00.420,18,88.26713199999999,1.732868,1.732868,0.1,-1,25.0,15.0,1.0,698.65,1.0
457,6,2021-02-23_16h22.00.420,19,1.732868,1.732868,1.732868,0.1,-1,25.0,10.0,1.0,674.3249999999999,1.0
458,6,2021-02-23_16h22.00.420,20,89.493169,0.506831,0.506831,0.1,-1,25.0,10.0,-1.0,864.6799999999998,0.0
459,6,2021-02-23_16h22.00.420,21,-88.26713199999999,-1.732868,1.732868,0.1,1,25.0,10.0,-1.0,606.8399999999999,1.0
460,6,2021-02-23_16h22.00.420,22,0.506831,0.506831,0.506831,0.1,-1,25.0,5.0,1.0,918.115,1.0
461,6,2021-02-23_16h22.00.420,23,-89.493169,-0.506831,0.506831,0.1,1,25.0,5.0,-1.0,958.6049999999999,1.0
462,6,2021-02-23_16h22.00.420,24,-0.506831,-0.506831,0.506831,0.1,1,25.0,5.0,-1.0,1068.2,1.0
463,6,2021-02-23_16h22.00.420,25,1.732868,1.732868,1.732868,0.1,1,25.0,5.0,1.0,1228.335,1.0
464,6,2021-02-23_16h22.00.420,26,-89.493169,-0.506831,0.506831,0.1,-1,25.0,0.0,-1.0,1118.015,1.0
465,6,2021-02-23_16h22.00.420,27,88.26713199999999,1.732868,1.732868,8.0,0,0.0,0.0,1.0,898.945,1.0
466,6,2021-02-23_16h22.00.420,28,89.493169,0.506831,0.506831,8.0,0,0.0,0.0,1.0,1078.4,1.0
467,6,2021-02-23_16h22.00.420,29,1.732868,1.732868,1.732868,8.0,0,0.0,0.0,-1.0,699.735,0.0
468,6,2021-02-23_16h22.00.420,30,-88.26713199999999,-1.732868,1.732868,8.0,0,0.0,0.0,-1.0,917.75,1.0
469,6,2021-02-23_16h22.00.420,31,-89.493169,-0.506831,0.506831,8.0,0,0.0,0.0,-1.0,749.725,1.0
470,6,2021-02-23_16h22.00.420,32,-0.506831,-0.506831,0.506831,8.0,0,0.0,0.0,-1.0,1384.405,1.0
471,6,2021-02-23_16h22.00.420,33,-1.732868,-1.732868,1.732868,8.0,0,0.0,0.0,-1.0,1181.765,1.0
472,6,2021-02-23_16h22.00.420,34,0.506831,0.506831,0.506831,8.0,0,0.0,0.0,1.0,936.015,1.0
473,6,2021-02-23_16h22.00.420,35,89.493169,0.506831,0.506831,8.0,0,0.0,0.0,-1.0,932.48,0.0
474,6,2021-02-23_16h22.00.420,36,-89.493169,-0.506831,0.506831,8.0,0,0.0,0.0,-1.0,652.915,1.0
475,6,2021-02-23_16h22.00.420,37,-88.26713199999999,-1.732868,1.732868,8.0,0,0.0,0.0,-1.0,839.8950000000001,1.0
476,6,2021-02-23_16h22.00.420,38,-0.506831,-0.506831,0.506831,8.0,0,0.0,0.0,-1.0,649.045,1.0
477,6,2021-02-23_16h22.00.420,39,1.732868,1.732868,1.732868,8.0,0,0.0,0.0,1.0,603.41,1.0
478,6,2021-02-23_16h22.00.420,40,0.506831,0.506831,0.506831,8.0,0,0.0,0.0,1.0,665.625,1.0
479,6,2021-02-23_16h22.00.420,41,-1.732868,-1.732868,1.732868,8.0,0,0.0,0.0,1.0,950.9350000000001,0.0
480,6,2021-02-23_16h22.00.420,42,88.26713199999999,1.732868,1.732868,8.0,0,0.0,0.0,1.0,1400.635,1.0
481,6,2021-02-23_16h22.00.420,43,1.732868,1.732868,1.732868,0.1,0,0.0,0.0,1.0,853.39,1.0
482,6,2021-02-23_16h22.00.420,44,-89.493169,-0.506831,0.506831,0.1,0,0.0,0.0,1.0,936.4950000000001,0.0
483,6,2021-02-23_16h22.00.420,45,-0.506831,-0.506831,0.506831,0.1,0,0.0,0.0,-1.0,801.7850000000001,1.0
484,6,2021-02-23_16h22.00.420,46,-1.732868,-1.732868,1.732868,0.1,0,0.0,0.0,-1.0,677.76,1.0
485,6,2021-02-23_16h22.00.420,47,89.493169,0.506831,0.506831,0.1,0,0.0,0.0,1.0,910.115,1.0
486,6,2021-02-23_16h22.00.420,48,0.506831,0.506831,0.506831,0.1,0,0.0,0.0,1.0,973.5149999999999,1.0
487,6,2021-02-23_16h22.00.420,49,-88.26713199999999,-1.732868,1.732868,0.1,0,0.0,0.0,-1.0,703.125,1.0
488,6,2021-02-23_16h22.00.420,50,88.26713199999999,1.732868,1.732868,0.1,0,0.0,0.0,1.0,586.1149999999999,1.0
489,6,2021-02-23_16h22.00.420,51,88.26713199999999,1.732868,1.732868,0.1,0,0.0,0.0,1.0,1027.54,1.0
490,6,2021-02-23_16h22.00.420,52,-1.732868,-1.732868,1.732868,0.1,0,0.0,0.0,-1.0,982.555,1.0
491,6,2021-02-23_16h22.00.420,53,-88.26713199999999,-1.732868,1.732868,0.1,0,0.0,0.0,-1.0,514.64,1.0
492,6,2021-02-23_16h22.00.420,54,89.493169,0.506831,0.506831,0.1,0,0.0,0.0,1.0,615.815,1.0
493,6,2021-02-23_16h22.00.420,55,-0.506831,-0.506831,0.506831,0.1,0,0.0,0.0,1.0,672.4200000000001,0.0
494,6,2021-02-23_16h22.00.420,56,0.506831,0.506831,0.506831,0.1,0,0.0,0.0,1.0,575.01,1.0
495,6,2021-02-23_16h22.00.420,57,1.732868,1.732868,1.732868,0.1,0,0.0,0.0,1.0,785.6999999999999,1.0
496,6,2021-02-23_16h22.00.420,58,-89.493169,-0.506831,0.506831,0.1,0,0.0,0.0,-1.0,859.5450000000001,1.0
497,6,2021-02-23_16h22.00.420,59,1.732868,1.732868,1.732868,0.1,-1,0.5,0.4,1.0,884.3149999999999,1.0
498,6,2021-02-23_16h22.00.420,60,-1.732868,-1.732868,1.732868,0.1,1,0.5,0.4,-1.0,534.6850000000001,1.0
499,6,2021-02-23_16h22.00.420,61,0.506831,0.506831,0.506831,0.1,-1,0.5,0.3,1.0,571.3600000000001,1.0
500,6,2021-02-23_16h22.00.420,62,-0.506831,-0.506831,0.506831,0.1,1,0.5,0.3,-1.0,655.735,1.0
501,6,2021-02-23_16h22.00.420,63,-88.26713199999999,-1.732868,1.732868,0.1,1,0.5,0.3,1.0,1601.165,0.0
502,6,2021-02-23_16h22.00.420,64,88.26713199999999,1.732868,1.732868,0.1,-1,0.5,0.3,-1.0,850.7249999999999,0.0
503,6,2021-02-23_16h22.00.420,65,-89.493169,-0.506831,0.506831,0.1,1,0.5,0.3,-1.0,851.43,1.0
504,6,2021-02-23_16h22.00.420,66,89.493169,0.506831,0.506831,0.1,-1,0.5,0.3,-1.0,486.1899999999999,0.0
505,6,2021-02-23_16h22.00.420,67,-89.493169,-0.506831,0.506831,0.1,-1,0.5,0.2,-1.0,1053.615,1.0
506,6,2021-02-23_16h22.00.420,68,88.26713199999999,1.732868,1.732868,0.1,1,0.5,0.2,1.0,800.9,1.0
507,6,2021-02-23_16h22.00.420,69,89.493169,0.506831,0.506831,0.1,1,0.5,0.2,1.0,634.5,1.0
508,6,2021-02-23_16h22.00.420,70,-0.506831,-0.506831,0.506831,0.1,-1,0.5,0.1,-1.0,852.8950000000001,1.0
509,6,2021-02-23_16h22.00.420,71,0.506831,0.506831,0.506831,0.1,1,0.5,0.1,1.0,726.915,1.0
510,6,2021-02-23_16h22.00.420,72,-1.732868,-1.732868,1.732868,0.1,-1,0.5,2.77556e-17,1.0,1234.6,0.0
511,7,2021-02-23_15h24.14.212,1,-0.506831,-0.506831,0.506831,8.0,0,0.0,0.0,1.0,1736.0,0.0
512,7,2021-02-23_15h24.14.212,2,0.506831,0.506831,0.506831,8.0,0,0.0,0.0,1.0,2337.0,1.0
513,7,2021-02-23_15h24.14.212,3,-88.26713199999999,-1.732868,1.732868,8.0,0,0.0,0.0,-1.0,1487.0,1.0
514,7,2021-02-23_15h24.14.212,4,-1.732868,-1.732868,1.732868,8.0,0,0.0,0.0,1.0,1559.0,0.0
515,7,2021-02-23_15h24.14.212,5,-89.493169,-0.506831,0.506831,8.0,0,0.0,0.0,1.0,1211.0,0.0
516,7,2021-02-23_15h24.14.212,6,1.732868,1.732868,1.732868,8.0,0,0.0,0.0,1.0,1289.0,1.0
517,7,2021-02-23_15h24.14.212,7,89.493169,0.506831,0.506831,8.0,0,0.0,0.0,1.0,1776.0,1.0
518,7,2021-02-23_15h24.14.212,8,88.26713199999999,1.732868,1.732868,8.0,0,0.0,0.0,1.0,4173.0,1.0
519,7,2021-02-23_15h24.14.212,9,-0.506831,-0.506831,0.506831,0.1,0,0.0,0.0,1.0,1602.0,0.0
520,7,2021-02-23_15h24.14.212,10,-88.26713199999999,-1.732868,1.732868,0.1,0,0.0,0.0,1.0,1492.0,0.0
521,7,2021-02-23_15h24.14.212,11,88.26713199999999,1.732868,1.732868,0.1,0,0.0,0.0,1.0,1403.0,1.0
522,7,2021-02-23_15h24.14.212,12,89.493169,0.506831,0.506831,0.1,0,0.0,0.0,1.0,994.0000000000001,1.0
523,7,2021-02-23_15h24.14.212,13,-89.493169,-0.506831,0.506831,0.1,0,0.0,0.0,1.0,1861.0,0.0
524,7,2021-02-23_15h24.14.212,14,1.732868,1.732868,1.732868,0.1,0,0.0,0.0,1.0,1553.0,1.0
525,7,2021-02-23_15h24.14.212,15,-1.732868,-1.732868,1.732868,0.1,0,0.0,0.0,1.0,1843.0,0.0
526,7,2021-02-23_15h24.14.212,16,0.506831,0.506831,0.506831,0.1,0,0.0,0.0,-1.0,3471.0,0.0
527,7,2021-02-23_15h24.14.212,17,0.506831,0.506831,0.506831,8.0,0,0.0,0.0,1.0,1941.0,1.0
528,7,2021-02-23_15h24.14.212,18,88.26713199999999,1.732868,1.732868,8.0,0,0.0,0.0,1.0,1743.0,1.0
529,7,2021-02-23_15h24.14.212,19,89.493169,0.506831,0.506831,8.0,0,0.0,0.0,1.0,1704.0,1.0
530,7,2021-02-23_15h24.14.212,20,1.732868,1.732868,1.732868,8.0,0,0.0,0.0,1.0,1938.0,1.0
531,7,2021-02-23_15h24.14.212,21,-0.506831,-0.506831,0.506831,8.0,0,0.0,0.0,1.0,3084.0,0.0
532,7,2021-02-23_15h24.14.212,22,-89.493169,-0.506831,0.506831,8.0,0,0.0,0.0,1.0,2127.0,0.0
533,7,2021-02-23_15h24.14.212,23,-1.732868,-1.732868,1.732868,8.0,0,0.0,0.0,-1.0,3463.0,1.0
534,7,2021-02-23_15h24.14.212,24,-88.26713199999999,-1.732868,1.732868,8.0,0,0.0,0.0,1.0,1876.0,0.0
535,7,2021-02-23_15h24.14.212,25,88.26713199999999,1.732868,1.732868,0.1,0,0.0,0.0,1.0,1990.0,1.0
536,7,2021-02-23_15h24.14.212,26,-0.506831,-0.506831,0.506831,0.1,0,0.0,0.0,1.0,2071.0,0.0
537,7,2021-02-23_15h24.14.212,27,-1.732868,-1.732868,1.732868,0.1,0,0.0,0.0,1.0,3456.0,0.0
538,7,2021-02-23_15h24.14.212,28,89.493169,0.506831,0.506831,0.1,0,0.0,0.0,1.0,3938.0,1.0
539,7,2021-02-23_15h24.14.212,29,1.732868,1.732868,1.732868,0.1,0,0.0,0.0,1.0,1691.0,1.0
540,7,2021-02-23_15h24.14.212,30,0.506831,0.506831,0.506831,0.1,0,0.0,0.0,1.0,1654.0,1.0
541,7,2021-02-23_15h24.14.212,31,-89.493169,-0.506831,0.506831,0.1,0,0.0,0.0,1.0,1486.0,0.0
542,7,2021-02-23_15h24.14.212,32,-88.26713199999999,-1.732868,1.732868,0.1,0,0.0,0.0,1.0,1525.0,0.0
543,7,2021-02-23_15h24.14.212,33,0.506831,0.506831,0.506831,0.1,-1,0.5,0.5,1.0,1360.0,1.0
544,7,2021-02-23_15h24.14.212,34,-0.506831,-0.506831,0.506831,0.1,1,0.5,0.5,1.0,1309.0,0.0
545,7,2021-02-23_15h24.14.212,35,-89.493169,-0.506831,0.506831,0.1,1,0.5,0.5,1.0,1671.0,0.0
546,7,2021-02-23_15h24.14.212,36,88.26713199999999,1.732868,1.732868,0.1,-1,0.5,0.5,1.0,1689.0,1.0
547,7,2021-02-23_15h24.14.212,37,-1.732868,-1.732868,1.732868,0.1,1,0.5,0.5,1.0,1996.0,0.0
548,7,2021-02-23_15h24.14.212,38,-88.26713199999999,-1.732868,1.732868,0.1,1,0.5,0.5,1.0,1970.0,0.0
549,7,2021-02-23_15h24.14.212,39,89.493169,0.506831,0.506831,0.1,-1,0.5,0.4,1.0,1341.0,1.0
550,7,2021-02-23_15h24.14.212,40,1.732868,1.732868,1.732868,0.1,-1,0.5,0.4,-1.0,2819.0,0.0
551,7,2021-02-23_15h24.14.212,41,-89.493169,-0.506831,0.506831,0.1,-1,0.5,0.3,1.0,1907.0,0.0
552,7,2021-02-23_15h24.14.212,42,-0.506831,-0.506831,0.506831,0.1,-1,0.5,0.3,1.0,1892.0,0.0
553,7,2021-02-23_15h24.14.212,43,0.506831,0.506831,0.506831,0.1,1,0.5,0.3,1.0,1875.0,1.0
554,7,2021-02-23_15h24.14.212,44,1.732868,1.732868,1.732868,0.1,1,0.5,0.3,1.0,1302.0,1.0
555,7,2021-02-23_15h24.14.212,45,89.493169,0.506831,0.506831,0.1,1,0.5,0.3,1.0,1298.0,1.0
556,7,2021-02-23_15h24.14.212,46,-1.732868,-1.732868,1.732868,0.1,-1,0.5,0.3,1.0,1484.0,0.0
557,7,2021-02-23_15h24.14.212,47,-88.26713199999999,-1.732868,1.732868,0.1,-1,0.5,0.2,1.0,1441.0,0.0
558,7,2021-02-23_15h24.14.212,48,88.26713199999999,1.732868,1.732868,0.1,1,0.5,0.2,1.0,1867.0,1.0
559,7,2021-02-23_15h24.14.212,49,-1.732868,-1.732868,1.732868,8.0,1,0.5,0.2,1.0,2403.0,0.0
560,7,2021-02-23_15h24.14.212,50,89.493169,0.506831,0.506831,8.0,-1,0.5,0.1,1.0,3018.0,1.0
561,7,2021-02-23_15h24.14.212,51,88.26713199999999,1.732868,1.732868,8.0,-1,0.5,2.77556e-17,1.0,1969.0,1.0
562,7,2021-02-23_15h24.14.212,52,88.26713199999999,1.732868,1.732868,8.0,1,25.0,25.0,1.0,1405.0,1.0
563,7,2021-02-23_15h24.14.212,53,-88.26713199999999,-1.732868,1.732868,8.0,-1,25.0,20.0,-1.0,32100.0,1.0
564,7,2021-02-23_15h24.14.212,54,-1.732868,-1.732868,1.732868,8.0,-1,25.0,20.0,-1.0,33474.00000000001,1.0
565,7,2021-02-23_15h24.14.212,55,1.732868,1.732868,1.732868,8.0,1,25.0,20.0,1.0,31373.0,1.0
566,7,2021-02-23_15h24.14.212,56,-89.493169,-0.506831,0.506831,8.0,-1,25.0,20.0,-1.0,35628.0,1.0
567,7,2021-02-23_15h24.14.212,57,-0.506831,-0.506831,0.506831,8.0,-1,25.0,20.0,1.0,2619.0,0.0
568,7,2021-02-23_15h24.14.212,58,0.506831,0.506831,0.506831,8.0,1,25.0,20.0,-1.0,22537.0,0.0
569,7,2021-02-23_15h24.14.212,59,89.493169,0.506831,0.506831,8.0,1,25.0,20.0,1.0,1803.0,1.0
570,7,2021-02-23_15h24.14.212,60,-89.493169,-0.506831,0.506831,8.0,1,25.0,20.0,-1.0,29867.0,1.0
571,7,2021-02-23_15h24.14.212,61,-0.506831,-0.506831,0.506831,8.0,1,25.0,20.0,-1.0,17695.0,1.0
572,7,2021-02-23_15h24.14.212,62,-1.732868,-1.732868,1.732868,8.0,1,25.0,20.0,-1.0,25940.0,1.0
573,7,2021-02-23_15h24.14.212,63,88.26713199999999,1.732868,1.732868,8.0,-1,25.0,20.0,1.0,2378.0,1.0
574,7,2021-02-23_15h24.14.212,64,1.732868,1.732868,1.732868,8.0,-1,25.0,20.0,1.0,15399.0,1.0
575,7,2021-02-23_15h24.14.212,65,-88.26713199999999,-1.732868,1.732868,8.0,1,25.0,20.0,-1.0,29084.0,1.0
576,7,2021-02-23_15h24.14.212,66,0.506831,0.506831,0.506831,8.0,-1,25.0,20.0,-1.0,40305.0,0.0
577,7,2021-02-23_15h24.14.212,67,89.493169,0.506831,0.506831,8.0,-1,25.0,15.0,1.0,1927.0,1.0
578,7,2021-02-23_15h24.14.212,68,-1.732868,-1.732868,1.732868,0.1,1,25.0,15.0,-1.0,2655.0,1.0
579,7,2021-02-23_15h24.14.212,69,0.506831,0.506831,0.506831,0.1,-1,25.0,15.0,-1.0,36589.0,0.0
580,7,2021-02-23_15h24.14.212,70,88.26713199999999,1.732868,1.732868,0.1,-1,25.0,15.0,1.0,2486.0,1.0
581,7,2021-02-23_15h24.14.212,71,1.732868,1.732868,1.732868,0.1,-1,25.0,10.0,1.0,18612.0,1.0
582,7,2021-02-23_15h24.14.212,72,-88.26713199999999,-1.732868,1.732868,0.1,1,25.0,10.0,-1.0,2186.0,1.0
583,7,2021-02-23_15h24.14.212,73,89.493169,0.506831,0.506831,0.1,-1,25.0,10.0,1.0,1679.0,1.0
584,7,2021-02-23_15h24.14.212,74,-89.493169,-0.506831,0.506831,0.1,1,25.0,10.0,1.0,1561.0,0.0
585,7,2021-02-23_15h24.14.212,75,-0.506831,-0.506831,0.506831,0.1,1,25.0,10.0,1.0,2036.0,0.0
586,7,2021-02-23_15h24.14.212,76,-1.732868,-1.732868,1.732868,0.1,-1,25.0,5.0,-1.0,1757.0,1.0
587,7,2021-02-23_15h24.14.212,77,88.26713199999999,1.732868,1.732868,0.1,1,25.0,5.0,1.0,1701.0,1.0
588,7,2021-02-23_15h24.14.212,78,-88.26713199999999,-1.732868,1.732868,0.1,-1,25.0,0.0,1.0,2734.0,0.0
589,8,2021-02-23_17h24.07.860,1,-1.732868,-1.732868,1.732868,8.0,1,0.5,0.5,1.0,2490.415,0.0
590,8,2021-02-23_17h24.07.860,2,-89.493169,-0.506831,0.506831,8.0,1,0.5,0.5,1.0,3719.53,0.0
591,8,2021-02-23_17h24.07.860,3,88.26713199999999,1.732868,1.732868,8.0,-1,0.5,0.5,-1.0,2382.42,0.0
592,8,2021-02-23_17h24.07.860,4,89.493169,0.506831,0.506831,8.0,-1,0.5,0.4,-1.0,2640.17,0.0
593,8,2021-02-23_17h24.07.860,5,-88.26713199999999,-1.732868,1.732868,8.0,1,0.5,0.4,-1.0,3165.68,1.0
594,8,2021-02-23_17h24.07.860,6,-0.506831,-0.506831,0.506831,8.0,1,0.5,0.4,-1.0,2749.175,1.0
595,8,2021-02-23_17h24.07.860,7,0.506831,0.506831,0.506831,8.0,-1,0.5,0.3,-1.0,2336.505,0.0
596,8,2021-02-23_17h24.07.860,8,1.732868,1.732868,1.732868,8.0,-1,0.5,0.2,-1.0,2442.405,0.0
597,8,2021-02-23_17h24.07.860,9,-88.26713199999999,-1.732868,1.732868,0.1,-1,0.5,0.2,1.0,2245.3,0.0
598,8,2021-02-23_17h24.07.860,10,-1.732868,-1.732868,1.732868,0.1,-1,0.5,0.2,1.0,3471.27,0.0
599,8,2021-02-23_17h24.07.860,11,0.506831,0.506831,0.506831,0.1,1,0.5,0.2,1.0,3568.36,1.0
600,8,2021-02-23_17h24.07.860,12,-0.506831,-0.506831,0.506831,0.1,-1,0.5,0.1,1.0,1660.495,0.0
601,8,2021-02-23_17h24.07.860,13,1.732868,1.732868,1.732868,0.1,1,0.5,0.1,1.0,3788.615,1.0
602,8,2021-02-23_17h24.07.860,14,-89.493169,-0.506831,0.506831,0.1,-1,0.5,0.1,1.0,2319.775,0.0
603,8,2021-02-23_17h24.07.860,15,89.493169,0.506831,0.506831,0.1,1,0.5,0.1,1.0,1949.925,1.0
604,8,2021-02-23_17h24.07.860,16,88.26713199999999,1.732868,1.732868,0.1,1,0.5,0.1,1.0,1564.885,1.0
605,8,2021-02-23_17h24.07.860,17,-0.506831,-0.506831,0.506831,0.1,1,0.5,0.1,-1.0,2402.095,1.0
606,8,2021-02-23_17h24.07.860,18,1.732868,1.732868,1.732868,0.1,-1,0.5,2.77556e-17,-1.0,1569.12,0.0
607,8,2021-02-23_17h24.07.860,19,88.26713199999999,1.732868,1.732868,0.1,0,0.0,0.0,1.0,2659.35,1.0
608,8,2021-02-23_17h24.07.860,20,1.732868,1.732868,1.732868,0.1,0,0.0,0.0,1.0,3139.115,1.0
609,8,2021-02-23_17h24.07.860,21,89.493169,0.506831,0.506831,0.1,0,0.0,0.0,-1.0,3920.795,0.0
610,8,2021-02-23_17h24.07.860,22,-1.732868,-1.732868,1.732868,0.1,0,0.0,0.0,1.0,2672.13,0.0
611,8,2021-02-23_17h24.07.860,23,0.506831,0.506831,0.506831,0.1,0,0.0,0.0,-1.0,1023.195,0.0
612,8,2021-02-23_17h24.07.860,24,-88.26713199999999,-1.732868,1.732868,0.1,0,0.0,0.0,-1.0,1779.375,1.0
613,8,2021-02-23_17h24.07.860,25,-0.506831,-0.506831,0.506831,0.1,0,0.0,0.0,-1.0,2462.025,1.0
614,8,2021-02-23_17h24.07.860,26,-89.493169,-0.506831,0.506831,0.1,0,0.0,0.0,-1.0,3010.02,1.0
615,8,2021-02-23_17h24.07.860,27,-0.506831,-0.506831,0.506831,8.0,0,0.0,0.0,-1.0,1831.415,1.0
616,8,2021-02-23_17h24.07.860,28,88.26713199999999,1.732868,1.732868,8.0,0,0.0,0.0,-1.0,2880.54,0.0
617,8,2021-02-23_17h24.07.860,29,0.506831,0.506831,0.506831,8.0,0,0.0,0.0,-1.0,548.54,0.0
618,8,2021-02-23_17h24.07.860,30,89.493169,0.506831,0.506831,8.0,0,0.0,0.0,1.0,629.96,1.0
619,8,2021-02-23_17h24.07.860,31,-1.732868,-1.732868,1.732868,8.0,0,0.0,0.0,1.0,847.4200000000001,0.0
620,8,2021-02-23_17h24.07.860,32,-88.26713199999999,-1.732868,1.732868,8.0,0,0.0,0.0,-1.0,5462.755,1.0
621,8,2021-02-23_17h24.07.860,33,-89.493169,-0.506831,0.506831,8.0,0,0.0,0.0,1.0,377.015,0.0
622,8,2021-02-23_17h24.07.860,34,1.732868,1.732868,1.732868,8.0,0,0.0,0.0,1.0,262.72,1.0
623,8,2021-02-23_17h24.07.860,35,-0.506831,-0.506831,0.506831,0.1,0,0.0,0.0,1.0,319.625,0.0
624,8,2021-02-23_17h24.07.860,36,-88.26713199999999,-1.732868,1.732868,0.1,0,0.0,0.0,-1.0,435.99,1.0
625,8,2021-02-23_17h24.07.860,37,89.493169,0.506831,0.506831,0.1,0,0.0,0.0,-1.0,239.07,0.0
626,8,2021-02-23_17h24.07.860,38,88.26713199999999,1.732868,1.732868,0.1,0,0.0,0.0,-1.0,719.46,0.0
627,8,2021-02-23_17h24.07.860,39,-89.493169,-0.506831,0.506831,0.1,0,0.0,0.0,1.0,221.715,0.0
628,8,2021-02-23_17h24.07.860,40,1.732868,1.732868,1.732868,0.1,0,0.0,0.0,-1.0,133.935,0.0
629,8,2021-02-23_17h24.07.860,41,0.506831,0.506831,0.506831,0.1,0,0.0,0.0,1.0,143.71,1.0
630,8,2021-02-23_17h24.07.860,42,-1.732868,-1.732868,1.732868,0.1,0,0.0,0.0,1.0,204.73,0.0
631,8,2021-02-23_17h24.07.860,43,-0.506831,-0.506831,0.506831,8.0,0,0.0,0.0,-1.0,1740.66,1.0
632,8,2021-02-23_17h24.07.860,44,0.506831,0.506831,0.506831,8.0,0,0.0,0.0,1.0,519.5450000000001,1.0
633,8,2021-02-23_17h24.07.860,45,-88.26713199999999,-1.732868,1.732868,8.0,0,0.0,0.0,-1.0,3152.78,1.0
634,8,2021-02-23_17h24.07.860,46,88.26713199999999,1.732868,1.732868,8.0,0,0.0,0.0,-1.0,2093.405,0.0
635,8,2021-02-23_17h24.07.860,47,-1.732868,-1.732868,1.732868,8.0,0,0.0,0.0,1.0,697.345,0.0
636,8,2021-02-23_17h24.07.860,48,1.732868,1.732868,1.732868,8.0,0,0.0,0.0,-1.0,220.59,0.0
637,8,2021-02-23_17h24.07.860,49,-89.493169,-0.506831,0.506831,8.0,0,0.0,0.0,-1.0,3966.91,1.0
638,8,2021-02-23_17h24.07.860,50,89.493169,0.506831,0.506831,8.0,0,0.0,0.0,-1.0,3315.55,0.0
639,8,2021-02-23_17h24.07.860,51,-89.493169,-0.506831,0.506831,8.0,-1,25.0,25.0,1.0,2224.735,0.0
640,8,2021-02-23_17h24.07.860,52,0.506831,0.506831,0.506831,8.0,1,25.0,25.0,1.0,2952.03,1.0
641,8,2021-02-23_17h24.07.860,53,89.493169,0.506831,0.506831,8.0,1,25.0,25.0,1.0,2080.01,1.0
642,8,2021-02-23_17h24.07.860,54,1.732868,1.732868,1.732868,8.0,1,25.0,25.0,1.0,2897.405,1.0
643,8,2021-02-23_17h24.07.860,55,88.26713199999999,1.732868,1.732868,8.0,1,25.0,25.0,1.0,2137.465,1.0
644,8,2021-02-23_17h24.07.860,56,-1.732868,-1.732868,1.732868,8.0,-1,25.0,25.0,-1.0,5652.58,1.0
645,8,2021-02-23_17h24.07.860,57,-0.506831,-0.506831,0.506831,8.0,-1,25.0,20.0,-1.0,2541.265,1.0
646,8,2021-02-23_17h24.07.860,58,-88.26713199999999,-1.732868,1.732868,8.0,-1,25.0,20.0,1.0,2400.05,0.0
647,8,2021-02-23_17h24.07.860,59,-0.506831,-0.506831,0.506831,8.0,1,25.0,20.0,-1.0,2581.235,1.0
648,8,2021-02-23_17h24.07.860,60,88.26713199999999,1.732868,1.732868,8.0,-1,25.0,15.0,-1.0,2488.77,0.0
649,8,2021-02-23_17h24.07.860,61,89.493169,0.506831,0.506831,8.0,-1,25.0,15.0,-1.0,2564.71,0.0
650,8,2021-02-23_17h24.07.860,62,-88.26713199999999,-1.732868,1.732868,8.0,1,25.0,15.0,-1.0,4587.190000000001,1.0
651,8,2021-02-23_17h24.07.860,63,1.732868,1.732868,1.732868,8.0,-1,25.0,15.0,-1.0,2553.785,0.0
652,8,2021-02-23_17h24.07.860,64,-1.732868,-1.732868,1.732868,8.0,1,25.0,15.0,-1.0,1834.48,1.0
653,8,2021-02-23_17h24.07.860,65,-89.493169,-0.506831,0.506831,8.0,1,25.0,15.0,1.0,3286.28,0.0
654,8,2021-02-23_17h24.07.860,66,0.506831,0.506831,0.506831,8.0,-1,25.0,15.0,-1.0,3286.27,0.0
655,8,2021-02-23_17h24.07.860,67,-89.493169,-0.506831,0.506831,0.1,1,25.0,15.0,-1.0,3634.115,1.0
656,8,2021-02-23_17h24.07.860,68,-88.26713199999999,-1.732868,1.732868,0.1,1,25.0,15.0,-1.0,2987.39,1.0
657,8,2021-02-23_17h24.07.860,69,1.732868,1.732868,1.732868,0.1,-1,25.0,15.0,-1.0,3116.27,0.0
658,8,2021-02-23_17h24.07.860,70,0.506831,0.506831,0.506831,0.1,-1,25.0,15.0,-1.0,3052.635,0.0
659,8,2021-02-23_17h24.07.860,71,88.26713199999999,1.732868,1.732868,0.1,-1,25.0,10.0,1.0,3115.18,1.0
660,8,2021-02-23_17h24.07.860,72,89.493169,0.506831,0.506831,0.1,-1,25.0,10.0,1.0,2319.6,1.0
661,8,2021-02-23_17h24.07.860,73,-0.506831,-0.506831,0.506831,0.1,1,25.0,10.0,-1.0,2885.82,1.0
662,8,2021-02-23_17h24.07.860,74,-1.732868,-1.732868,1.732868,0.1,1,25.0,10.0,-1.0,1775.73,1.0
663,8,2021-02-23_17h24.07.860,75,-0.506831,-0.506831,0.506831,0.1,-1,25.0,10.0,-1.0,3476.495,1.0
664,8,2021-02-23_17h24.07.860,76,-89.493169,-0.506831,0.506831,0.1,-1,25.0,5.0,1.0,2996.43,0.0
665,8,2021-02-23_17h24.07.860,77,89.493169,0.506831,0.506831,0.1,1,25.0,5.0,1.0,2095.845,1.0
666,8,2021-02-23_17h24.07.860,78,0.506831,0.506831,0.506831,0.1,1,25.0,5.0,-1.0,2186.465,0.0
667,8,2021-02-23_17h24.07.860,79,-88.26713199999999,-1.732868,1.732868,0.1,-1,25.0,5.0,1.0,2386.645,0.0
668,8,2021-02-23_17h24.07.860,80,1.732868,1.732868,1.732868,0.1,1,25.0,5.0,1.0,2952.07,1.0
669,8,2021-02-23_17h24.07.860,81,88.26713199999999,1.732868,1.732868,0.1,1,25.0,5.0,1.0,2726.415,1.0
670,8,2021-02-23_17h24.07.860,82,-1.732868,-1.732868,1.732868,0.1,-1,25.0,0.0,1.0,4986.87,0.0
671,9,2021-02-23_16h05.44.317,1,0.506831,0.506831,0.506831,0.1,0,0.0,0.0,-1.0,2458.83,0.0
672,9,2021-02-23_16h05.44.317,2,-0.506831,-0.506831,0.506831,0.1,0,0.0,0.0,-1.0,1728.315,1.0
673,9,2021-02-23_16h05.44.317,3,89.493169,0.506831,0.506831,0.1,0,0.0,0.0,1.0,2796.1,1.0
674,9,2021-02-23_16h05.44.317,4,88.26713199999999,1.732868,1.732868,0.1,0,0.0,0.0,-1.0,771.375,0.0
675,9,2021-02-23_16h05.44.317,5,1.732868,1.732868,1.732868,0.1,0,0.0,0.0,1.0,1883.965,1.0
676,9,2021-02-23_16h05.44.317,6,-1.732868,-1.732868,1.732868,0.1,0,0.0,0.0,-1.0,1397.33,1.0
677,9,2021-02-23_16h05.44.317,7,-89.493169,-0.506831,0.506831,0.1,0,0.0,0.0,-1.0,2321.71,1.0
678,9,2021-02-23_16h05.44.317,8,-88.26713199999999,-1.732868,1.732868,0.1,0,0.0,0.0,-1.0,2895.95,1.0
679,9,2021-02-23_16h05.44.317,9,0.506831,0.506831,0.506831,8.0,0,0.0,0.0,-1.0,2319.115,0.0
680,9,2021-02-23_16h05.44.317,10,-0.506831,-0.506831,0.506831,8.0,0,0.0,0.0,-1.0,3035.945,1.0
681,9,2021-02-23_16h05.44.317,11,89.493169,0.506831,0.506831,8.0,0,0.0,0.0,1.0,1853.975,1.0
682,9,2021-02-23_16h05.44.317,12,-1.732868,-1.732868,1.732868,8.0,0,0.0,0.0,-1.0,3048.44,1.0
683,9,2021-02-23_16h05.44.317,13,-88.26713199999999,-1.732868,1.732868,8.0,0,0.0,0.0,-1.0,4100.27,1.0
684,9,2021-02-23_16h05.44.317,14,-89.493169,-0.506831,0.506831,8.0,0,0.0,0.0,-1.0,5772.16,1.0
685,9,2021-02-23_16h05.44.317,15,88.26713199999999,1.732868,1.732868,8.0,0,0.0,0.0,1.0,2464.39,1.0
686,9,2021-02-23_16h05.44.317,16,1.732868,1.732868,1.732868,8.0,0,0.0,0.0,-1.0,3637.115,0.0
687,9,2021-02-23_16h05.44.317,17,89.493169,0.506831,0.506831,8.0,0,0.0,0.0,1.0,2083.075,1.0
688,9,2021-02-23_16h05.44.317,18,-89.493169,-0.506831,0.506831,8.0,0,0.0,0.0,-1.0,2172.25,1.0
689,9,2021-02-23_16h05.44.317,19,0.506831,0.506831,0.506831,8.0,0,0.0,0.0,-1.0,2238.605,0.0
690,9,2021-02-23_16h05.44.317,20,88.26713199999999,1.732868,1.732868,8.0,0,0.0,0.0,1.0,1972.33,1.0
691,9,2021-02-23_16h05.44.317,21,-1.732868,-1.732868,1.732868,8.0,0,0.0,0.0,-1.0,1861.45,1.0
692,9,2021-02-23_16h05.44.317,22,1.732868,1.732868,1.732868,8.0,0,0.0,0.0,1.0,1599.015,1.0
693,9,2021-02-23_16h05.44.317,23,-0.506831,-0.506831,0.506831,8.0,0,0.0,0.0,1.0,2527.405,0.0
694,9,2021-02-23_16h05.44.317,24,-88.26713199999999,-1.732868,1.732868,8.0,0,0.0,0.0,-1.0,3530.935,1.0
695,9,2021-02-23_16h05.44.317,25,-0.506831,-0.506831,0.506831,0.1,0,0.0,0.0,-1.0,1585.02,1.0
696,9,2021-02-23_16h05.44.317,26,-89.493169,-0.506831,0.506831,0.1,0,0.0,0.0,-1.0,2149.785,1.0
697,9,2021-02-23_16h05.44.317,27,1.732868,1.732868,1.732868,0.1,0,0.0,0.0,1.0,1441.965,1.0
698,9,2021-02-23_16h05.44.317,28,89.493169,0.506831,0.506831,0.1,0,0.0,0.0,1.0,1216.325,1.0
699,9,2021-02-23_16h05.44.317,29,-1.732868,-1.732868,1.732868,0.1,0,0.0,0.0,-1.0,1329.22,1.0
700,9,2021-02-23_16h05.44.317,30,88.26713199999999,1.732868,1.732868,0.1,0,0.0,0.0,1.0,1871.36,1.0
701,9,2021-02-23_16h05.44.317,31,-88.26713199999999,-1.732868,1.732868,0.1,0,0.0,0.0,-1.0,2283.99,1.0
702,9,2021-02-23_16h05.44.317,32,0.506831,0.506831,0.506831,0.1,0,0.0,0.0,1.0,2650.11,1.0
703,9,2021-02-23_16h05.44.317,33,-88.26713199999999,-1.732868,1.732868,8.0,-1,0.5,0.5,-1.0,2433.805,1.0
704,9,2021-02-23_16h05.44.317,34,0.506831,0.506831,0.506831,8.0,1,0.5,0.5,-1.0,1700.215,0.0
705,9,2021-02-23_16h05.44.317,35,1.732868,1.732868,1.732868,8.0,1,0.5,0.5,1.0,1171.285,1.0
706,9,2021-02-23_16h05.44.317,36,-89.493169,-0.506831,0.506831,8.0,-1,0.5,0.4,-1.0,1340.795,1.0
707,9,2021-02-23_16h05.44.317,37,89.493169,0.506831,0.506831,8.0,1,0.5,0.4,1.0,1083.2,1.0
708,9,2021-02-23_16h05.44.317,38,-1.732868,-1.732868,1.732868,8.0,-1,0.5,0.4,-1.0,1119.49,1.0
709,9,2021-02-23_16h05.44.317,39,88.26713199999999,1.732868,1.732868,8.0,1,0.5,0.4,1.0,1034.855,1.0
710,9,2021-02-23_16h05.44.317,40,-0.506831,-0.506831,0.506831,8.0,-1,0.5,0.4,1.0,2524.45,0.0
711,9,2021-02-23_16h05.44.317,41,-89.493169,-0.506831,0.506831,0.1,1,0.5,0.4,1.0,3633.29,0.0
712,9,2021-02-23_16h05.44.317,42,89.493169,0.506831,0.506831,0.1,-1,0.5,0.4,1.0,2702.735,1.0
713,9,2021-02-23_16h05.44.317,43,-0.506831,-0.506831,0.506831,0.1,1,0.5,0.4,-1.0,1722.12,1.0
714,9,2021-02-23_16h05.44.317,44,88.26713199999999,1.732868,1.732868,0.1,-1,0.5,0.3,1.0,1266.315,1.0
715,9,2021-02-23_16h05.44.317,45,1.732868,1.732868,1.732868,0.1,-1,0.5,0.2,1.0,1043.685,1.0
716,9,2021-02-23_16h05.44.317,46,-88.26713199999999,-1.732868,1.732868,0.1,1,0.5,0.2,-1.0,1943.195,1.0
717,9,2021-02-23_16h05.44.317,47,-1.732868,-1.732868,1.732868,0.1,1,0.5,0.2,-1.0,2294.55,1.0
718,9,2021-02-23_16h05.44.317,48,0.506831,0.506831,0.506831,0.1,-1,0.5,0.2,-1.0,1302.445,0.0
719,9,2021-02-23_16h05.44.317,49,88.26713199999999,1.732868,1.732868,8.0,-1,0.5,0.2,1.0,1709.125,1.0
720,9,2021-02-23_16h05.44.317,50,0.506831,0.506831,0.506831,8.0,-1,0.5,0.2,-1.0,3083.165,0.0
721,9,2021-02-23_16h05.44.317,51,-1.732868,-1.732868,1.732868,8.0,1,0.5,0.2,-1.0,1059.045,1.0
722,9,2021-02-23_16h05.44.317,52,-0.506831,-0.506831,0.506831,8.0,1,0.5,0.2,-1.0,1716.85,1.0
723,9,2021-02-23_16h05.44.317,53,-89.493169,-0.506831,0.506831,8.0,1,0.5,0.2,-1.0,1484.465,1.0
724,9,2021-02-23_16h05.44.317,54,-88.26713199999999,-1.732868,1.732868,8.0,1,0.5,0.2,-1.0,2264.425,1.0
725,9,2021-02-23_16h05.44.317,55,89.493169,0.506831,0.506831,8.0,-1,0.5,0.2,1.0,2198.89,1.0
726,9,2021-02-23_16h05.44.317,56,1.732868,1.732868,1.732868,8.0,-1,0.5,0.1,1.0,2149.18,1.0
727,9,2021-02-23_16h05.44.317,57,89.493169,0.506831,0.506831,0.1,1,0.5,0.1,-1.0,1873.82,0.0
728,9,2021-02-23_16h05.44.317,58,-0.506831,-0.506831,0.506831,0.1,-1,0.5,2.77556e-17,-1.0,4012.659999999999,1.0
729,9,2021-02-23_16h05.44.317,59,0.506831,0.506831,0.506831,0.1,1,25.0,25.0,-1.0,1947.425,0.0
730,9,2021-02-23_16h05.44.317,60,-1.732868,-1.732868,1.732868,0.1,-1,25.0,20.0,-1.0,2433.12,1.0
731,9,2021-02-23_16h05.44.317,61,-0.506831,-0.506831,0.506831,0.1,-1,25.0,15.0,-1.0,1965.715,1.0
732,9,2021-02-23_16h05.44.317,62,-89.493169,-0.506831,0.506831,0.1,-1,25.0,15.0,-1.0,2682.62,1.0
733,9,2021-02-23_16h05.44.317,63,-88.26713199999999,-1.732868,1.732868,0.1,-1,25.0,15.0,-1.0,1229.455,1.0
734,9,2021-02-23_16h05.44.317,64,88.26713199999999,1.732868,1.732868,0.1,1,25.0,15.0,1.0,1984.645,1.0
735,9,2021-02-23_16h05.44.317,65,89.493169,0.506831,0.506831,0.1,1,25.0,15.0,1.0,883.5799999999999,1.0
736,9,2021-02-23_16h05.44.317,66,1.732868,1.732868,1.732868,0.1,1,25.0,15.0,1.0,1399.18,1.0
737,9,2021-02-23_16h05.44.317,67,-89.493169,-0.506831,0.506831,0.1,1,25.0,15.0,-1.0,2387.335,1.0
738,9,2021-02-23_16h05.44.317,68,88.26713199999999,1.732868,1.732868,0.1,-1,25.0,15.0,1.0,1141.745,1.0
739,9,2021-02-23_16h05.44.317,69,0.506831,0.506831,0.506831,0.1,-1,25.0,15.0,-1.0,1044.815,0.0
740,9,2021-02-23_16h05.44.317,70,-1.732868,-1.732868,1.732868,0.1,1,25.0,15.0,-1.0,2114.075,1.0
741,9,2021-02-23_16h05.44.317,71,1.732868,1.732868,1.732868,0.1,-1,25.0,15.0,1.0,1484.075,1.0
742,9,2021-02-23_16h05.44.317,72,-88.26713199999999,-1.732868,1.732868,0.1,1,25.0,15.0,-1.0,1872.025,1.0
743,9,2021-02-23_16h05.44.317,73,89.493169,0.506831,0.506831,0.1,-1,25.0,15.0,1.0,1917.905,1.0
744,9,2021-02-23_16h05.44.317,74,-0.506831,-0.506831,0.506831,0.1,1,25.0,15.0,-1.0,2147.365,1.0
745,9,2021-02-23_16h05.44.317,75,1.732868,1.732868,1.732868,8.0,1,25.0,15.0,1.0,1368.44,1.0
746,9,2021-02-23_16h05.44.317,76,89.493169,0.506831,0.506831,8.0,1,25.0,15.0,1.0,1756.495,1.0
747,9,2021-02-23_16h05.44.317,77,0.506831,0.506831,0.506831,8.0,1,25.0,15.0,-1.0,2963.965,0.0
748,9,2021-02-23_16h05.44.317,78,-0.506831,-0.506831,0.506831,8.0,-1,25.0,15.0,-1.0,2217.06,1.0
749,9,2021-02-23_16h05.44.317,79,-88.26713199999999,-1.732868,1.732868,8.0,-1,25.0,15.0,-1.0,2998.415,1.0
750,9,2021-02-23_16h05.44.317,80,88.26713199999999,1.732868,1.732868,8.0,1,25.0,15.0,1.0,2947.57,1.0
751,9,2021-02-23_16h05.44.317,81,-89.493169,-0.506831,0.506831,8.0,-1,25.0,10.0,-1.0,4715.09,1.0
752,9,2021-02-23_16h05.44.317,82,-1.732868,-1.732868,1.732868,8.0,-1,25.0,10.0,-1.0,1756.865,1.0
753,9,2021-02-23_16h05.44.317,83,-0.506831,-0.506831,0.506831,8.0,1,25.0,10.0,1.0,1639.555,0.0
754,9,2021-02-23_16h05.44.317,84,0.506831,0.506831,0.506831,8.0,-1,25.0,10.0,1.0,1678.85,1.0
755,9,2021-02-23_16h05.44.317,85,88.26713199999999,1.732868,1.732868,8.0,-1,25.0,10.0,1.0,2301.005,1.0
756,9,2021-02-23_16h05.44.317,86,89.493169,0.506831,0.506831,8.0,-1,25.0,10.0,-1.0,2266.96,0.0
757,9,2021-02-23_16h05.44.317,87,-88.26713199999999,-1.732868,1.732868,8.0,1,25.0,10.0,-1.0,1814.63,1.0
758,9,2021-02-23_16h05.44.317,88,-1.732868,-1.732868,1.732868,8.0,1,25.0,10.0,-1.0,2138.585,1.0
759,9,2021-02-23_16h05.44.317,89,-89.493169,-0.506831,0.506831,8.0,1,25.0,10.0,1.0,3092.36,0.0
760,9,2021-02-23_16h05.44.317,90,1.732868,1.732868,1.732868,8.0,-1,25.0,10.0,1.0,5220.690000000001,1.0
761,10,2021-02-23_16h21.50.301,1,88.26713199999999,1.732868,1.732868,8.0,0,0.0,0.0,-1.0,2157.42,0.0
762,10,2021-02-23_16h21.50.301,2,1.732868,1.732868,1.732868,8.0,0,0.0,0.0,1.0,1009.085,1.0
763,10,2021-02-23_16h21.50.301,3,-1.732868,-1.732868,1.732868,8.0,0,0.0,0.0,-1.0,1084.41,1.0
764,10,2021-02-23_16h21.50.301,4,0.506831,0.506831,0.506831,8.0,0,0.0,0.0,-1.0,1218.355,0.0
765,10,2021-02-23_16h21.50.301,5,-88.26713199999999,-1.732868,1.732868,8.0,0,0.0,0.0,1.0,851.6450000000001,0.0
766,10,2021-02-23_16h21.50.301,6,89.493169,0.506831,0.506831,8.0,0,0.0,0.0,1.0,718.14,1.0
767,10,2021-02-23_16h21.50.301,7,-89.493169,-0.506831,0.506831,8.0,0,0.0,0.0,1.0,600.855,0.0
768,10,2021-02-23_16h21.50.301,8,-0.506831,-0.506831,0.506831,8.0,0,0.0,0.0,1.0,1067.835,0.0
769,10,2021-02-23_16h21.50.301,9,-1.732868,-1.732868,1.732868,0.1,0,0.0,0.0,1.0,658.65,0.0
770,10,2021-02-23_16h21.50.301,10,0.506831,0.506831,0.506831,0.1,0,0.0,0.0,1.0,1117.52,1.0
771,10,2021-02-23_16h21.50.301,11,89.493169,0.506831,0.506831,0.1,0,0.0,0.0,-1.0,2392.025,0.0
772,10,2021-02-23_16h21.50.301,12,1.732868,1.732868,1.732868,0.1,0,0.0,0.0,-1.0,1218.22,0.0
773,10,2021-02-23_16h21.50.301,13,-89.493169,-0.506831,0.506831,0.1,0,0.0,0.0,1.0,1900.955,0.0
774,10,2021-02-23_16h21.50.301,14,88.26713199999999,1.732868,1.732868,0.1,0,0.0,0.0,1.0,1267.79,1.0
775,10,2021-02-23_16h21.50.301,15,-0.506831,-0.506831,0.506831,0.1,0,0.0,0.0,1.0,1900.615,0.0
776,10,2021-02-23_16h21.50.301,16,-88.26713199999999,-1.732868,1.732868,0.1,0,0.0,0.0,-1.0,935.06,1.0
777,10,2021-02-23_16h21.50.301,17,0.506831,0.506831,0.506831,0.1,0,0.0,0.0,1.0,1598.25,1.0
778,10,2021-02-23_16h21.50.301,18,-0.506831,-0.506831,0.506831,0.1,0,0.0,0.0,1.0,3013.715,0.0
779,10,2021-02-23_16h21.50.301,19,-89.493169,-0.506831,0.506831,0.1,0,0.0,0.0,-1.0,1468.035,1.0
780,10,2021-02-23_16h21.50.301,20,1.732868,1.732868,1.732868,0.1,0,0.0,0.0,1.0,900.6899999999999,1.0
781,10,2021-02-23_16h21.50.301,21,89.493169,0.506831,0.506831,0.1,0,0.0,0.0,1.0,866.8399999999999,1.0
782,10,2021-02-23_16h21.50.301,22,-88.26713199999999,-1.732868,1.732868,0.1,0,0.0,0.0,-1.0,2384.485,1.0
783,10,2021-02-23_16h21.50.301,23,-1.732868,-1.732868,1.732868,0.1,0,0.0,0.0,-1.0,1616.56,1.0
784,10,2021-02-23_16h21.50.301,24,88.26713199999999,1.732868,1.732868,0.1,0,0.0,0.0,1.0,1058.95,1.0
785,10,2021-02-23_16h21.50.301,25,-88.26713199999999,-1.732868,1.732868,8.0,0,0.0,0.0,-1.0,1483.35,1.0
786,10,2021-02-23_16h21.50.301,26,-1.732868,-1.732868,1.732868,8.0,0,0.0,0.0,-1.0,1591.305,1.0
787,10,2021-02-23_16h21.50.301,27,1.732868,1.732868,1.732868,8.0,0,0.0,0.0,1.0,1166.835,1.0
788,10,2021-02-23_16h21.50.301,28,-0.506831,-0.506831,0.506831,8.0,0,0.0,0.0,-1.0,1483.995,1.0
789,10,2021-02-23_16h21.50.301,29,0.506831,0.506831,0.506831,8.0,0,0.0,0.0,1.0,1852.42,1.0
790,10,2021-02-23_16h21.50.301,30,88.26713199999999,1.732868,1.732868,8.0,0,0.0,0.0,1.0,1517.895,1.0
791,10,2021-02-23_16h21.50.301,31,-89.493169,-0.506831,0.506831,8.0,0,0.0,0.0,-1.0,1763.685,1.0
792,10,2021-02-23_16h21.50.301,32,89.493169,0.506831,0.506831,8.0,0,0.0,0.0,1.0,1600.98,1.0
793,10,2021-02-23_16h21.50.301,33,1.732868,1.732868,1.732868,0.1,-1,0.5,0.4,1.0,1121.6,1.0
794,10,2021-02-23_16h21.50.301,34,-89.493169,-0.506831,0.506831,0.1,1,0.5,0.4,1.0,411.725,0.0
795,10,2021-02-23_16h21.50.301,35,0.506831,0.506831,0.506831,0.1,-1,0.5,0.3,1.0,666.8649999999999,1.0
796,10,2021-02-23_16h21.50.301,36,88.26713199999999,1.732868,1.732868,0.1,-1,0.5,0.3,1.0,1951.455,1.0
797,10,2021-02-23_16h21.50.301,37,-0.506831,-0.506831,0.506831,0.1,1,0.5,0.3,-1.0,1285.065,1.0
798,10,2021-02-23_16h21.50.301,38,-88.26713199999999,-1.732868,1.732868,0.1,1,0.5,0.3,-1.0,2209.785,1.0
799,10,2021-02-23_16h21.50.301,39,-1.732868,-1.732868,1.732868,0.1,1,0.5,0.3,-1.0,2026.2,1.0
800,10,2021-02-23_16h21.50.301,40,89.493169,0.506831,0.506831,0.1,-1,0.5,0.3,-1.0,1735.7,0.0
801,10,2021-02-23_16h21.50.301,41,-88.26713199999999,-1.732868,1.732868,0.1,-1,0.5,0.3,-1.0,1367.955,1.0
802,10,2021-02-23_16h21.50.301,42,0.506831,0.506831,0.506831,0.1,1,0.5,0.3,1.0,1918.85,1.0
803,10,2021-02-23_16h21.50.301,43,-89.493169,-0.506831,0.506831,0.1,-1,0.5,0.2,-1.0,1617.885,1.0
804,10,2021-02-23_16h21.50.301,44,-1.732868,-1.732868,1.732868,0.1,-1,0.5,0.1,-1.0,1267.12,1.0
805,10,2021-02-23_16h21.50.301,45,89.493169,0.506831,0.506831,0.1,1,0.5,0.1,1.0,1717.93,1.0
806,10,2021-02-23_16h21.50.301,46,1.732868,1.732868,1.732868,0.1,1,0.5,0.1,1.0,1934.43,1.0
807,10,2021-02-23_16h21.50.301,47,88.26713199999999,1.732868,1.732868,0.1,1,0.5,0.1,1.0,1134.125,1.0
808,10,2021-02-23_16h21.50.301,48,-0.506831,-0.506831,0.506831,0.1,-1,0.5,0.1,1.0,3545.32,0.0
809,10,2021-02-23_16h21.50.301,49,88.26713199999999,1.732868,1.732868,8.0,-1,0.5,2.77556e-17,1.0,1475.705,1.0
810,10,2021-02-23_16h21.50.301,50,-1.732868,-1.732868,1.732868,0.1,-1,25.0,25.0,-1.0,7217.094999999999,1.0
811,10,2021-02-23_16h21.50.301,51,0.506831,0.506831,0.506831,0.1,1,25.0,25.0,1.0,1434.22,1.0
812,10,2021-02-23_16h21.50.301,52,88.26713199999999,1.732868,1.732868,0.1,1,25.0,25.0,1.0,1283.56,1.0
813,10,2021-02-23_16h21.50.301,53,89.493169,0.506831,0.506831,0.1,1,25.0,25.0,1.0,962.2850000000001,1.0
814,10,2021-02-23_16h21.50.301,54,-89.493169,-0.506831,0.506831,0.1,-1,25.0,25.0,-1.0,2206.81,1.0
815,10,2021-02-23_16h21.50.301,55,-88.26713199999999,-1.732868,1.732868,0.1,-1,25.0,25.0,-1.0,2925.15,1.0
816,10,2021-02-23_16h21.50.301,56,1.732868,1.732868,1.732868,0.1,1,25.0,25.0,1.0,1450.855,1.0
817,10,2021-02-23_16h21.50.301,57,-0.506831,-0.506831,0.506831,0.1,-1,25.0,20.0,-1.0,2825.33,1.0
818,10,2021-02-23_16h21.50.301,58,-1.732868,-1.732868,1.732868,8.0,1,25.0,20.0,-1.0,1251.145,1.0
819,10,2021-02-23_16h21.50.301,59,-89.493169,-0.506831,0.506831,8.0,1,25.0,20.0,-1.0,1734.62,1.0
820,10,2021-02-23_16h21.50.301,60,-0.506831,-0.506831,0.506831,8.0,1,25.0,20.0,-1.0,2367.87,1.0
821,10,2021-02-23_16h21.50.301,61,1.732868,1.732868,1.732868,8.0,-1,25.0,20.0,1.0,3034.71,1.0
822,10,2021-02-23_16h21.50.301,62,0.506831,0.506831,0.506831,8.0,-1,25.0,20.0,-1.0,1883.755,0.0
823,10,2021-02-23_16h21.50.301,63,88.26713199999999,1.732868,1.732868,8.0,-1,25.0,20.0,1.0,2233.77,1.0
824,10,2021-02-23_16h21.50.301,64,89.493169,0.506831,0.506831,8.0,-1,25.0,15.0,1.0,2151.465,1.0
825,10,2021-02-23_16h21.50.301,65,-88.26713199999999,-1.732868,1.732868,8.0,1,25.0,15.0,-1.0,2134.755,1.0
826,10,2021-02-23_16h21.50.301,66,-89.493169,-0.506831,0.506831,0.1,1,25.0,15.0,-1.0,1342.89,1.0
827,10,2021-02-23_16h21.50.301,67,1.732868,1.732868,1.732868,0.1,-1,25.0,10.0,1.0,2160.05,1.0
828,10,2021-02-23_16h21.50.301,68,89.493169,0.506831,0.506831,0.1,-1,25.0,10.0,1.0,1683.865,1.0
829,10,2021-02-23_16h21.50.301,69,0.506831,0.506831,0.506831,0.1,-1,25.0,10.0,-1.0,1850.96,0.0
830,10,2021-02-23_16h21.50.301,70,-0.506831,-0.506831,0.506831,0.1,1,25.0,10.0,-1.0,1719.365,1.0
831,10,2021-02-23_16h21.50.301,71,88.26713199999999,1.732868,1.732868,0.1,-1,25.0,10.0,1.0,1309.22,1.0
832,10,2021-02-23_16h21.50.301,72,-88.26713199999999,-1.732868,1.732868,0.1,1,25.0,10.0,-1.0,2017.605,1.0
833,10,2021-02-23_16h21.50.301,73,-1.732868,-1.732868,1.732868,0.1,1,25.0,10.0,-1.0,1634.505,1.0
834,10,2021-02-23_16h21.50.301,74,0.506831,0.506831,0.506831,8.0,1,25.0,10.0,1.0,958.5100000000001,1.0
835,10,2021-02-23_16h21.50.301,75,1.732868,1.732868,1.732868,8.0,1,25.0,10.0,1.0,1193.335,1.0
836,10,2021-02-23_16h21.50.301,76,-0.506831,-0.506831,0.506831,8.0,-1,25.0,10.0,-1.0,1417.155,1.0
837,10,2021-02-23_16h21.50.301,77,89.493169,0.506831,0.506831,8.0,1,25.0,10.0,1.0,1517.4,1.0
838,10,2021-02-23_16h21.50.301,78,-89.493169,-0.506831,0.506831,8.0,-1,25.0,10.0,-1.0,2267.515,1.0
839,10,2021-02-23_16h21.50.301,79,-1.732868,-1.732868,1.732868,8.0,-1,25.0,5.0,-1.0,1551.57,1.0
840,10,2021-02-23_16h21.50.301,80,88.26713199999999,1.732868,1.732868,8.0,1,25.0,5.0,1.0,1217.415,1.0
841,10,2021-02-23_16h21.50.301,81,-88.26713199999999,-1.732868,1.732868,8.0,-1,25.0,5.0,-1.0,2468.01,1.0
842,11,2021-02-23_16h23.28.587,1,0.506831,0.506831,0.506831,0.1,1,0.5,0.5,-1.0,1698.785,0.0
843,11,2021-02-23_16h23.28.587,2,-88.26713199999999,-1.732868,1.732868,0.1,-1,0.5,0.5,1.0,2567.515,0.0
844,11,2021-02-23_16h23.28.587,3,-0.506831,-0.506831,0.506831,0.1,-1,0.5,0.4,1.0,1784.255,0.0
845,11,2021-02-23_16h23.28.587,4,-1.732868,-1.732868,1.732868,0.1,-1,0.5,0.4,1.0,2268.19,0.0
846,11,2021-02-23_16h23.28.587,5,1.732868,1.732868,1.732868,0.1,1,0.5,0.4,1.0,1967.52,1.0
847,11,2021-02-23_16h23.28.587,6,-89.493169,-0.506831,0.506831,0.1,-1,0.5,0.4,-1.0,1617.405,1.0
848,11,2021-02-23_16h23.28.587,7,88.26713199999999,1.732868,1.732868,0.1,1,0.5,0.4,1.0,1467.845,1.0
849,11,2021-02-23_16h23.28.587,8,89.493169,0.506831,0.506831,0.1,1,0.5,0.4,1.0,3422.46,1.0
850,11,2021-02-23_16h23.28.587,9,-0.506831,-0.506831,0.506831,8.0,1,0.5,0.4,-1.0,1905.35,1.0
851,11,2021-02-23_16h23.28.587,10,88.26713199999999,1.732868,1.732868,8.0,-1,0.5,0.4,1.0,1817.985,1.0
852,11,2021-02-23_16h23.28.587,11,-1.732868,-1.732868,1.732868,8.0,1,0.5,0.4,-1.0,2101.835,1.0
853,11,2021-02-23_16h23.28.587,12,-88.26713199999999,-1.732868,1.732868,8.0,1,0.5,0.4,-1.0,2755.985,1.0
854,11,2021-02-23_16h23.28.587,13,-89.493169,-0.506831,0.506831,8.0,1,0.5,0.4,-1.0,1084.105,1.0
855,11,2021-02-23_16h23.28.587,14,89.493169,0.506831,0.506831,8.0,-1,0.5,0.3,1.0,2067.75,1.0
856,11,2021-02-23_16h23.28.587,15,0.506831,0.506831,0.506831,8.0,-1,0.5,0.2,1.0,2334.65,1.0
857,11,2021-02-23_16h23.28.587,16,1.732868,1.732868,1.732868,8.0,-1,0.5,0.2,1.0,2751.505,1.0
858,11,2021-02-23_16h23.28.587,17,-89.493169,-0.506831,0.506831,8.0,-1,0.5,0.2,1.0,1433.72,0.0
859,11,2021-02-23_16h23.28.587,18,-88.26713199999999,-1.732868,1.732868,8.0,-1,0.5,0.1,-1.0,1389.045,1.0
860,11,2021-02-23_16h23.28.587,19,-1.732868,-1.732868,1.732868,8.0,-1,0.5,0.1,-1.0,1800.83,1.0
861,11,2021-02-23_16h23.28.587,20,89.493169,0.506831,0.506831,8.0,1,0.5,0.1,1.0,1119.275,1.0
862,11,2021-02-23_16h23.28.587,21,88.26713199999999,1.732868,1.732868,8.0,1,0.5,0.1,1.0,966.945,1.0
863,11,2021-02-23_16h23.28.587,22,1.732868,1.732868,1.732868,8.0,1,0.5,0.1,1.0,2300.605,1.0
864,11,2021-02-23_16h23.28.587,23,-0.506831,-0.506831,0.506831,8.0,-1,0.5,0.1,-1.0,3433.825,1.0
865,11,2021-02-23_16h23.28.587,24,0.506831,0.506831,0.506831,8.0,1,0.5,0.1,1.0,1251.92,1.0
866,11,2021-02-23_16h23.28.587,25,0.506831,0.506831,0.506831,0.1,-1,0.5,0.1,-1.0,1468.085,0.0
867,11,2021-02-23_16h23.28.587,26,1.732868,1.732868,1.732868,0.1,-1,0.5,0.1,1.0,3738.595,1.0
868,11,2021-02-23_16h23.28.587,27,-88.26713199999999,-1.732868,1.732868,0.1,1,0.5,0.1,-1.0,984.1700000000001,1.0
869,11,2021-02-23_16h23.28.587,28,-1.732868,-1.732868,1.732868,0.1,1,0.5,0.1,-1.0,2001.57,1.0
870,11,2021-02-23_16h23.28.587,29,-89.493169,-0.506831,0.506831,0.1,1,0.5,0.1,-1.0,1701.06,1.0
871,11,2021-02-23_16h23.28.587,30,88.26713199999999,1.732868,1.732868,0.1,-1,0.5,0.1,1.0,1400.43,1.0
872,11,2021-02-23_16h23.28.587,31,-0.506831,-0.506831,0.506831,0.1,1,0.5,0.1,-1.0,1684.165,1.0
873,11,2021-02-23_16h23.28.587,32,89.493169,0.506831,0.506831,0.1,-1,0.5,2.77556e-17,1.0,2282.97,1.0
874,11,2021-02-23_16h23.28.587,33,88.26713199999999,1.732868,1.732868,0.1,-1,25.0,25.0,1.0,1518.545,1.0
875,11,2021-02-23_16h23.28.587,34,1.732868,1.732868,1.732868,0.1,-1,25.0,20.0,-1.0,4184.89,0.0
876,11,2021-02-23_16h23.28.587,35,-88.26713199999999,-1.732868,1.732868,0.1,1,25.0,20.0,-1.0,1167.615,1.0
877,11,2021-02-23_16h23.28.587,36,-89.493169,-0.506831,0.506831,0.1,1,25.0,20.0,-1.0,2835.64,1.0
878,11,2021-02-23_16h23.28.587,37,-0.506831,-0.506831,0.506831,0.1,1,25.0,20.0,-1.0,2119.05,1.0
879,11,2021-02-23_16h23.28.587,38,-1.732868,-1.732868,1.732868,0.1,1,25.0,20.0,-1.0,1736.81,1.0
880,11,2021-02-23_16h23.28.587,39,0.506831,0.506831,0.506831,0.1,-1,25.0,15.0,-1.0,1968.015,0.0
881,11,2021-02-23_16h23.28.587,40,89.493169,0.506831,0.506831,0.1,-1,25.0,15.0,1.0,1784.105,1.0
882,11,2021-02-23_16h23.28.587,41,-89.493169,-0.506831,0.506831,8.0,1,25.0,15.0,1.0,1650.065,0.0
883,11,2021-02-23_16h23.28.587,42,89.493169,0.506831,0.506831,8.0,-1,25.0,15.0,1.0,2201.2,1.0
884,11,2021-02-23_16h23.28.587,43,0.506831,0.506831,0.506831,8.0,-1,25.0,10.0,1.0,2234.22,1.0
885,11,2021-02-23_16h23.28.587,44,88.26713199999999,1.732868,1.732868,8.0,-1,25.0,5.0,-1.0,1317.975,0.0
886,11,2021-02-23_16h23.28.587,45,1.732868,1.732868,1.732868,8.0,-1,25.0,0.0,-1.0,5951.145,0.0
887,11,2021-02-23_16h23.28.587,46,-0.506831,-0.506831,0.506831,0.1,0,0.0,0.0,-1.0,1601.05,1.0
888,11,2021-02-23_16h23.28.587,47,-89.493169,-0.506831,0.506831,0.1,0,0.0,0.0,-1.0,2101.98,1.0
889,11,2021-02-23_16h23.28.587,48,-1.732868,-1.732868,1.732868,0.1,0,0.0,0.0,-1.0,2017.895,1.0
890,11,2021-02-23_16h23.28.587,49,1.732868,1.732868,1.732868,0.1,0,0.0,0.0,1.0,1434.445,1.0
891,11,2021-02-23_16h23.28.587,50,89.493169,0.506831,0.506831,0.1,0,0.0,0.0,1.0,3934.744999999999,1.0
892,11,2021-02-23_16h23.28.587,51,-88.26713199999999,-1.732868,1.732868,0.1,0,0.0,0.0,-1.0,1251.275,1.0
893,11,2021-02-23_16h23.28.587,52,0.506831,0.506831,0.506831,0.1,0,0.0,0.0,1.0,4701.61,1.0
894,11,2021-02-23_16h23.28.587,53,88.26713199999999,1.732868,1.732868,0.1,0,0.0,0.0,-1.0,1386.62,0.0
895,11,2021-02-23_16h23.28.587,54,-1.732868,-1.732868,1.732868,0.1,0,0.0,0.0,-1.0,2759.125,1.0
896,11,2021-02-23_16h23.28.587,55,-89.493169,-0.506831,0.506831,0.1,0,0.0,0.0,-1.0,2168.12,1.0
897,11,2021-02-23_16h23.28.587,56,0.506831,0.506831,0.506831,0.1,0,0.0,0.0,1.0,1751.565,1.0
898,11,2021-02-23_16h23.28.587,57,88.26713199999999,1.732868,1.732868,0.1,0,0.0,0.0,1.0,3184.585,1.0
899,11,2021-02-23_16h23.28.587,58,89.493169,0.506831,0.506831,0.1,0,0.0,0.0,1.0,1519.77,1.0
900,11,2021-02-23_16h23.28.587,59,1.732868,1.732868,1.732868,0.1,0,0.0,0.0,1.0,2501.325,1.0
901,11,2021-02-23_16h23.28.587,60,-88.26713199999999,-1.732868,1.732868,0.1,0,0.0,0.0,-1.0,2236.475,1.0
902,11,2021-02-23_16h23.28.587,61,-0.506831,-0.506831,0.506831,0.1,0,0.0,0.0,-1.0,1650.375,1.0
903,11,2021-02-23_16h23.28.587,62,88.26713199999999,1.732868,1.732868,8.0,0,0.0,0.0,1.0,1667.37,1.0
904,11,2021-02-23_16h23.28.587,63,0.506831,0.506831,0.506831,8.0,0,0.0,0.0,-1.0,1700.69,0.0
905,11,2021-02-23_16h23.28.587,64,1.732868,1.732868,1.732868,8.0,0,0.0,0.0,1.0,3717.08,1.0
906,11,2021-02-23_16h23.28.587,65,-88.26713199999999,-1.732868,1.732868,8.0,0,0.0,0.0,-1.0,2302.135,1.0
907,11,2021-02-23_16h23.28.587,66,-0.506831,-0.506831,0.506831,8.0,0,0.0,0.0,1.0,4584.1,0.0
908,11,2021-02-23_16h23.28.587,67,-89.493169,-0.506831,0.506831,8.0,0,0.0,0.0,1.0,2185.135,0.0
909,11,2021-02-23_16h23.28.587,68,-1.732868,-1.732868,1.732868,8.0,0,0.0,0.0,-1.0,2184.455,1.0
910,11,2021-02-23_16h23.28.587,69,89.493169,0.506831,0.506831,8.0,0,0.0,0.0,1.0,1951.625,1.0
911,11,2021-02-23_16h23.28.587,70,-0.506831,-0.506831,0.506831,8.0,0,0.0,0.0,-1.0,1571.905,1.0
912,11,2021-02-23_16h23.28.587,71,-1.732868,-1.732868,1.732868,8.0,0,0.0,0.0,-1.0,1367.13,1.0
913,11,2021-02-23_16h23.28.587,72,-88.26713199999999,-1.732868,1.732868,8.0,0,0.0,0.0,-1.0,1801.86,1.0
914,11,2021-02-23_16h23.28.587,73,89.493169,0.506831,0.506831,8.0,0,0.0,0.0,1.0,1151.095,1.0
915,11,2021-02-23_16h23.28.587,74,88.26713199999999,1.732868,1.732868,8.0,0,0.0,0.0,1.0,785.3399999999999,1.0
916,11,2021-02-23_16h23.28.587,75,-89.493169,-0.506831,0.506831,8.0,0,0.0,0.0,1.0,1501.03,0.0
917,11,2021-02-23_16h23.28.587,76,1.732868,1.732868,1.732868,8.0,0,0.0,0.0,1.0,1368.695,1.0
918,11,2021-02-23_16h23.28.587,77,0.506831,0.506831,0.506831,8.0,0,0.0,0.0,1.0,3719.755,1.0
919,12,2021-02-23_17h01.50.461,1,-88.26713199999999,-1.732868,1.732868,0.1,1,0.5,0.5,1.0,954.375,0.0
920,12,2021-02-23_17h01.50.461,2,1.732868,1.732868,1.732868,0.1,-1,0.5,0.5,1.0,483.97,1.0
921,12,2021-02-23_17h01.50.461,3,89.493169,0.506831,0.506831,0.1,-1,0.5,0.4,1.0,591.475,1.0
922,12,2021-02-23_17h01.50.461,4,0.506831,0.506831,0.506831,0.1,-1,0.5,0.3,-1.0,392.52,0.0
923,12,2021-02-23_17h01.50.461,5,-89.493169,-0.506831,0.506831,0.1,1,0.5,0.3,-1.0,436.4649999999999,1.0
924,12,2021-02-23_17h01.50.461,6,88.26713199999999,1.732868,1.732868,0.1,-1,0.5,0.3,-1.0,378.4,0.0
925,12,2021-02-23_17h01.50.461,7,-1.732868,-1.732868,1.732868,0.1,1,0.5,0.3,-1.0,475.53,1.0
926,12,2021-02-23_17h01.50.461,8,-0.506831,-0.506831,0.506831,0.1,1,0.5,0.3,1.0,862.085,0.0
927,12,2021-02-23_17h01.50.461,9,0.506831,0.506831,0.506831,0.1,1,0.5,0.3,1.0,985.225,1.0
928,12,2021-02-23_17h01.50.461,10,-88.26713199999999,-1.732868,1.732868,0.1,-1,0.5,0.3,-1.0,1218.705,1.0
929,12,2021-02-23_17h01.50.461,11,88.26713199999999,1.732868,1.732868,0.1,1,0.5,0.3,-1.0,921.925,0.0
930,12,2021-02-23_17h01.50.461,12,-1.732868,-1.732868,1.732868,0.1,-1,0.5,0.3,1.0,1624.56,0.0
931,12,2021-02-23_17h01.50.461,13,1.732868,1.732868,1.732868,0.1,1,0.5,0.3,-1.0,1042.065,0.0
932,12,2021-02-23_17h01.50.461,14,89.493169,0.506831,0.506831,0.1,1,0.5,0.3,1.0,1206.085,1.0
933,12,2021-02-23_17h01.50.461,15,-89.493169,-0.506831,0.506831,0.1,-1,0.5,0.3,1.0,1056.495,0.0
934,12,2021-02-23_17h01.50.461,16,-0.506831,-0.506831,0.506831,0.1,-1,0.5,0.3,1.0,978.57,0.0
935,12,2021-02-23_17h01.50.461,17,88.26713199999999,1.732868,1.732868,8.0,-1,0.5,0.3,1.0,1135.61,1.0
936,12,2021-02-23_17h01.50.461,18,-88.26713199999999,-1.732868,1.732868,8.0,1,0.5,0.3,1.0,1625.32,0.0
937,12,2021-02-23_17h01.50.461,19,0.506831,0.506831,0.506831,8.0,-1,0.5,0.2,1.0,735.015,1.0
938,12,2021-02-23_17h01.50.461,20,-1.732868,-1.732868,1.732868,8.0,1,0.5,0.2,-1.0,2113.06,1.0
939,12,2021-02-23_17h01.50.461,21,-0.506831,-0.506831,0.506831,8.0,1,0.5,0.2,-1.0,1244.26,1.0
940,12,2021-02-23_17h01.50.461,22,1.732868,1.732868,1.732868,8.0,-1,0.5,0.1,1.0,785.52,1.0
941,12,2021-02-23_17h01.50.461,23,89.493169,0.506831,0.506831,8.0,-1,0.5,2.77556e-17,1.0,1791.855,1.0
942,12,2021-02-23_17h01.50.461,24,-1.732868,-1.732868,1.732868,0.1,1,25.0,25.0,-1.0,1433.91,1.0
943,12,2021-02-23_17h01.50.461,25,89.493169,0.506831,0.506831,0.1,-1,25.0,25.0,1.0,1071.295,1.0
944,12,2021-02-23_17h01.50.461,26,0.506831,0.506831,0.506831,0.1,-1,25.0,25.0,-1.0,6225.495,0.0
945,12,2021-02-23_17h01.50.461,27,1.732868,1.732868,1.732868,0.1,-1,25.0,25.0,1.0,1228.77,1.0
946,12,2021-02-23_17h01.50.461,28,88.26713199999999,1.732868,1.732868,0.1,-1,25.0,25.0,1.0,906.9399999999999,1.0
947,12,2021-02-23_17h01.50.461,29,-88.26713199999999,-1.732868,1.732868,0.1,1,25.0,25.0,1.0,1317.465,0.0
948,12,2021-02-23_17h01.50.461,30,-89.493169,-0.506831,0.506831,0.1,1,25.0,25.0,-1.0,1696.34,1.0
949,12,2021-02-23_17h01.50.461,31,-0.506831,-0.506831,0.506831,0.1,1,25.0,25.0,1.0,5251.835,0.0
950,12,2021-02-23_17h01.50.461,32,-1.732868,-1.732868,1.732868,8.0,1,25.0,25.0,-1.0,2488.865,1.0
951,12,2021-02-23_17h01.50.461,33,88.26713199999999,1.732868,1.732868,8.0,-1,25.0,20.0,1.0,1391.245,1.0
952,12,2021-02-23_17h01.50.461,34,-0.506831,-0.506831,0.506831,8.0,1,25.0,20.0,-1.0,2828.16,1.0
953,12,2021-02-23_17h01.50.461,35,-88.26713199999999,-1.732868,1.732868,8.0,1,25.0,20.0,-1.0,11799.895,1.0
954,12,2021-02-23_17h01.50.461,36,-89.493169,-0.506831,0.506831,8.0,1,25.0,20.0,-1.0,2313.475,1.0
955,12,2021-02-23_17h01.50.461,37,0.506831,0.506831,0.506831,8.0,-1,25.0,20.0,1.0,1422.5,1.0
956,12,2021-02-23_17h01.50.461,38,89.493169,0.506831,0.506831,8.0,-1,25.0,20.0,1.0,2034.615,1.0
957,12,2021-02-23_17h01.50.461,39,1.732868,1.732868,1.732868,8.0,-1,25.0,20.0,1.0,1290.27,1.0
958,12,2021-02-23_17h01.50.461,40,-1.732868,-1.732868,1.732868,8.0,-1,25.0,20.0,-1.0,2058.6,1.0
959,12,2021-02-23_17h01.50.461,41,0.506831,0.506831,0.506831,8.0,1,25.0,20.0,1.0,1434.99,1.0
960,12,2021-02-23_17h01.50.461,42,-88.26713199999999,-1.732868,1.732868,8.0,-1,25.0,20.0,-1.0,3536.84,1.0
961,12,2021-02-23_17h01.50.461,43,-89.493169,-0.506831,0.506831,8.0,-1,25.0,20.0,-1.0,2463.87,1.0
962,12,2021-02-23_17h01.50.461,44,-0.506831,-0.506831,0.506831,8.0,-1,25.0,20.0,1.0,3039.545,0.0
963,12,2021-02-23_17h01.50.461,45,1.732868,1.732868,1.732868,8.0,1,25.0,20.0,1.0,2977.67,1.0
964,12,2021-02-23_17h01.50.461,46,88.26713199999999,1.732868,1.732868,8.0,1,25.0,20.0,1.0,3072.33,1.0
965,12,2021-02-23_17h01.50.461,47,89.493169,0.506831,0.506831,8.0,1,25.0,20.0,1.0,1694.655,1.0
966,12,2021-02-23_17h01.50.461,48,-0.506831,-0.506831,0.506831,0.1,-1,25.0,20.0,1.0,5593.055,0.0
967,12,2021-02-23_17h01.50.461,49,89.493169,0.506831,0.506831,0.1,1,25.0,20.0,1.0,2023.26,1.0
968,12,2021-02-23_17h01.50.461,50,1.732868,1.732868,1.732868,0.1,1,25.0,20.0,1.0,1983.145,1.0
969,12,2021-02-23_17h01.50.461,51,-88.26713199999999,-1.732868,1.732868,0.1,-1,25.0,20.0,1.0,2504.21,0.0
970,12,2021-02-23_17h01.50.461,52,0.506831,0.506831,0.506831,0.1,1,25.0,20.0,1.0,2130.445,1.0
971,12,2021-02-23_17h01.50.461,53,88.26713199999999,1.732868,1.732868,0.1,1,25.0,20.0,1.0,3211.795,1.0
972,12,2021-02-23_17h01.50.461,54,-1.732868,-1.732868,1.732868,0.1,-1,25.0,20.0,1.0,1970.67,0.0
973,12,2021-02-23_17h01.50.461,55,-89.493169,-0.506831,0.506831,0.1,-1,25.0,20.0,1.0,3751.405,0.0
974,12,2021-02-23_17h01.50.461,56,0.506831,0.506831,0.506831,8.0,0,0.0,0.0,1.0,3199.83,1.0
975,12,2021-02-23_17h01.50.461,57,-0.506831,-0.506831,0.506831,8.0,0,0.0,0.0,-1.0,3119.555,1.0
976,12,2021-02-23_17h01.50.461,58,89.493169,0.506831,0.506831,8.0,0,0.0,0.0,1.0,2519.88,1.0
977,12,2021-02-23_17h01.50.461,59,1.732868,1.732868,1.732868,8.0,0,0.0,0.0,1.0,2135.04,1.0
978,12,2021-02-23_17h01.50.461,60,-89.493169,-0.506831,0.506831,8.0,0,0.0,0.0,1.0,3973.51,0.0
979,12,2021-02-23_17h01.50.461,61,88.26713199999999,1.732868,1.732868,8.0,0,0.0,0.0,1.0,2320.015,1.0
980,12,2021-02-23_17h01.50.461,62,-1.732868,-1.732868,1.732868,8.0,0,0.0,0.0,-1.0,3796.68,1.0
981,12,2021-02-23_17h01.50.461,63,-88.26713199999999,-1.732868,1.732868,8.0,0,0.0,0.0,1.0,6019.805,0.0
982,12,2021-02-23_17h01.50.461,64,-0.506831,-0.506831,0.506831,8.0,0,0.0,0.0,1.0,1766.99,0.0
983,12,2021-02-23_17h01.50.461,65,89.493169,0.506831,0.506831,8.0,0,0.0,0.0,1.0,2123.665,1.0
984,12,2021-02-23_17h01.50.461,66,-1.732868,-1.732868,1.732868,8.0,0,0.0,0.0,-1.0,1859.71,1.0
985,12,2021-02-23_17h01.50.461,67,-89.493169,-0.506831,0.506831,8.0,0,0.0,0.0,1.0,1981.995,0.0
986,12,2021-02-23_17h01.50.461,68,-88.26713199999999,-1.732868,1.732868,8.0,0,0.0,0.0,-1.0,3722.184999999999,1.0
987,12,2021-02-23_17h01.50.461,69,1.732868,1.732868,1.732868,8.0,0,0.0,0.0,1.0,3602.225,1.0
988,12,2021-02-23_17h01.50.461,70,88.26713199999999,1.732868,1.732868,8.0,0,0.0,0.0,1.0,1606.04,1.0
989,12,2021-02-23_17h01.50.461,71,0.506831,0.506831,0.506831,8.0,0,0.0,0.0,1.0,1866.265,1.0
990,12,2021-02-23_17h01.50.461,72,-89.493169,-0.506831,0.506831,0.1,0,0.0,0.0,1.0,3117.82,0.0
991,12,2021-02-23_17h01.50.461,73,88.26713199999999,1.732868,1.732868,0.1,0,0.0,0.0,1.0,1674.525,1.0
992,12,2021-02-23_17h01.50.461,74,-0.506831,-0.506831,0.506831,0.1,0,0.0,0.0,1.0,3951.285,0.0
993,12,2021-02-23_17h01.50.461,75,0.506831,0.506831,0.506831,0.1,0,0.0,0.0,1.0,2690.33,1.0
994,12,2021-02-23_17h01.50.461,76,-88.26713199999999,-1.732868,1.732868,0.1,0,0.0,0.0,-1.0,5559.295,1.0
995,12,2021-02-23_17h01.50.461,77,-1.732868,-1.732868,1.732868,0.1,0,0.0,0.0,-1.0,2728.33,1.0
996,12,2021-02-23_17h01.50.461,78,89.493169,0.506831,0.506831,0.1,0,0.0,0.0,1.0,2605.0,1.0
997,12,2021-02-23_17h01.50.461,79,1.732868,1.732868,1.732868,0.1,0,0.0,0.0,1.0,2224.255,1.0
998,12,2021-02-23_17h01.50.461,80,-0.506831,-0.506831,0.506831,0.1,0,0.0,0.0,-1.0,2866.675,1.0
999,12,2021-02-23_17h01.50.461,81,89.493169,0.506831,0.506831,0.1,0,0.0,0.0,1.0,2733.465,1.0
1000,12,2021-02-23_17h01.50.461,82,88.26713199999999,1.732868,1.732868,0.1,0,0.0,0.0,1.0,1714.71,1.0
1001,12,2021-02-23_17h01.50.461,83,-89.493169,-0.506831,0.506831,0.1,0,0.0,0.0,1.0,8267.000000000002,0.0
1002,12,2021-02-23_17h01.50.461,84,-1.732868,-1.732868,1.732868,0.1,0,0.0,0.0,-1.0,3216.88,1.0
1003,12,2021-02-23_17h01.50.461,85,0.506831,0.506831,0.506831,0.1,0,0.0,0.0,1.0,2386.43,1.0
1004,12,2021-02-23_17h01.50.461,86,-88.26713199999999,-1.732868,1.732868,0.1,0,0.0,0.0,-1.0,2990.23,1.0
1005,12,2021-02-23_17h01.50.461,87,1.732868,1.732868,1.732868,0.1,0,0.0,0.0,1.0,2087.755,1.0
1006,13,2021-02-23_16h20.58.291,1,-0.506831,-0.506831,0.506831,8.0,1,25.0,25.0,1.0,709.41,0.0
1007,13,2021-02-23_16h20.58.291,2,-89.493169,-0.506831,0.506831,8.0,1,25.0,25.0,1.0,2118.98,0.0
1008,13,2021-02-23_16h20.58.291,3,-1.732868,-1.732868,1.732868,8.0,1,25.0,25.0,-1.0,751.1,1.0
1009,13,2021-02-23_16h20.58.291,4,89.493169,0.506831,0.506831,8.0,-1,25.0,25.0,1.0,734.675,1.0
1010,13,2021-02-23_16h20.58.291,5,88.26713199999999,1.732868,1.732868,8.0,-1,25.0,25.0,1.0,2011.165,1.0
1011,13,2021-02-23_16h20.58.291,6,1.732868,1.732868,1.732868,8.0,-1,25.0,20.0,1.0,644.23,1.0
1012,13,2021-02-23_16h20.58.291,7,0.506831,0.506831,0.506831,8.0,-1,25.0,20.0,-1.0,818.6949999999999,0.0
1013,13,2021-02-23_16h20.58.291,8,-88.26713199999999,-1.732868,1.732868,8.0,1,25.0,20.0,-1.0,1167.375,1.0
1014,13,2021-02-23_16h20.58.291,9,89.493169,0.506831,0.506831,0.1,1,25.0,20.0,-1.0,1604.385,0.0
1015,13,2021-02-23_16h20.58.291,10,-88.26713199999999,-1.732868,1.732868,0.1,-1,25.0,20.0,-1.0,742.475,1.0
1016,13,2021-02-23_16h20.58.291,11,1.732868,1.732868,1.732868,0.1,1,25.0,20.0,1.0,645.455,1.0
1017,13,2021-02-23_16h20.58.291,12,0.506831,0.506831,0.506831,0.1,1,25.0,20.0,-1.0,584.4449999999999,0.0
1018,13,2021-02-23_16h20.58.291,13,-89.493169,-0.506831,0.506831,0.1,-1,25.0,15.0,1.0,420.5,0.0
1019,13,2021-02-23_16h20.58.291,14,-0.506831,-0.506831,0.506831,0.1,-1,25.0,15.0,-1.0,2355.295,1.0
1020,13,2021-02-23_16h20.58.291,15,88.26713199999999,1.732868,1.732868,0.1,1,25.0,15.0,-1.0,727.3,0.0
1021,13,2021-02-23_16h20.58.291,16,-1.732868,-1.732868,1.732868,0.1,-1,25.0,15.0,-1.0,583.8100000000001,1.0
1022,13,2021-02-23_16h20.58.291,17,-0.506831,-0.506831,0.506831,0.1,1,25.0,15.0,-1.0,986.32,1.0
1023,13,2021-02-23_16h20.58.291,18,-89.493169,-0.506831,0.506831,0.1,1,25.0,15.0,-1.0,551.2249999999999,1.0
1024,13,2021-02-23_16h20.58.291,19,0.506831,0.506831,0.506831,0.1,-1,25.0,15.0,-1.0,353.235,0.0
1025,13,2021-02-23_16h20.58.291,20,1.732868,1.732868,1.732868,0.1,-1,25.0,15.0,1.0,523.59,1.0
1026,13,2021-02-23_16h20.58.291,21,89.493169,0.506831,0.506831,0.1,-1,25.0,15.0,1.0,435.205,1.0
1027,13,2021-02-23_16h20.58.291,22,88.26713199999999,1.732868,1.732868,0.1,-1,25.0,15.0,-1.0,620.475,0.0
1028,13,2021-02-23_16h20.58.291,23,-1.732868,-1.732868,1.732868,0.1,1,25.0,15.0,1.0,509.7550000000001,0.0
1029,13,2021-02-23_16h20.58.291,24,-88.26713199999999,-1.732868,1.732868,0.1,1,25.0,15.0,1.0,340.89,0.0
1030,13,2021-02-23_16h20.58.291,25,-88.26713199999999,-1.732868,1.732868,8.0,-1,25.0,10.0,-1.0,856.49,1.0
1031,13,2021-02-23_16h20.58.291,26,0.506831,0.506831,0.506831,8.0,1,25.0,10.0,-1.0,234.65,0.0
1032,13,2021-02-23_16h20.58.291,27,-1.732868,-1.732868,1.732868,8.0,-1,25.0,10.0,-1.0,484.11,1.0
1033,13,2021-02-23_16h20.58.291,28,88.26713199999999,1.732868,1.732868,8.0,1,25.0,10.0,1.0,356.815,1.0
